aX,aY,aZ,gX,gY,gZ
-0.947998046875,-1.05029296875,-0.6033935546875,83.80126190185547,-101.98973846435547,126.52587127685547
-1.039306640625,-1.0819091796875,-0.611328125,51.635738372802734,-139.7705078125,169.00633239746094
-1.0875244140625,-1.078125,-0.745849609375,30.334470748901367,-184.20408630371094,196.83836364746094
-1.0264892578125,-1.00732421875,-0.713623046875,20.080564498901367,-208.98435974121094,215.20994567871094
-0.8802490234375,-1.0018310546875,-0.7005615234375,15.319823265075684,-223.38865661621094,229.49217224121094
-0.669921875,-0.8360595703125,-0.541015625,6.958007335662842,-231.20115661621094,225.52488708496094
-0.443359375,-0.7813720703125,-0.5654296875,-1.3427733182907104,-226.01316833496094,212.76853942871094
-0.25341796875,-0.6177978515625,-0.378173828125,-8.9111328125,-208.06883239746094,191.46726989746094
-0.0283203125,-0.546142578125,-0.4068603515625,6.408690929412842,-189.39207458496094,169.86082458496094
0.088134765625,-0.4466552734375,-0.2279052734375,16.9677734375,-166.93113708496094,141.66259765625
0.2503662109375,-0.4822998046875,-0.236328125,36.865234375,-152.64892578125,126.46483612060547
0.38232421875,-0.4443359375,-0.1265869140625,38.6962890625,-134.09423828125,102.47801971435547
0.5150146484375,-0.456298828125,-0.095947265625,40.710445404052734,-115.84471893310547,85.08300018310547
0.6370849609375,-0.4185791015625,-0.0145263671875,25.451658248901367,-92.46825408935547,68.115234375
0.739990234375,-0.39404296875,0.078857421875,15.624999046325684,-72.6318359375,51.635738372802734
0.820068359375,-0.3892822265625,0.1217041015625,14.282225608825684,-49.194332122802734,37.2314453125
0.869384765625,-0.354736328125,0.13232421875,8.6669921875,-28.381345748901367,23.071287155151367
0.8885498046875,-0.3814697265625,0.1341552734375,2.807616949081421,-10.437010765075684,11.596678733825684
0.9019775390625,-0.3870849609375,0.0335693359375,-9.1552734375,1.0986328125,6.408690929412842
0.89697265625,-0.39306640625,-0.025146484375,-12.390135765075684,5.493163585662842,2.990722417831421
0.903564453125,-0.373046875,-0.0560302734375,-12.756346702575684,4.2724609375,0.9155272841453552
0.9158935546875,-0.3770751953125,-0.082763671875,-8.11767578125,2.0751953125,1.4038084745407104
0.9130859375,-0.3734130859375,-0.0419921875,-2.197265625,0.9155272841453552,0.4882812201976776
0.9188232421875,-0.3975830078125,-0.068115234375,1.4038084745407104,0.7324218153953552,0.7934569716453552
0.923828125,-0.3944091796875,-0.0391845703125,0.8544921278953552,-0.1831054538488388,0.9155272841453552
0.9080810546875,-0.3890380859375,-0.0302734375,-4.2724609375,0.9155272841453552,0.6103515625
0.9039306640625,-0.37158203125,-0.059814453125,-5.310058116912842,1.4038084745407104,-0.3662109076976776
0.889404296875,-0.3450927734375,-0.0045166015625,-3.051757574081421,6.286620616912842,-2.624511480331421
0.8572998046875,-0.341796875,-0.023193359375,1.4648436307907104,14.465331077575684,-8.30078125
0.82373046875,-0.332275390625,0.0177001953125,5.187987804412842,24.291990280151367,-17.7001953125
0.805908203125,-0.3355712890625,0.0257568359375,4.82177734375,37.2314453125,-26.672361373901367
0.804443359375,-0.3408203125,-0.00830078125,-1.8310545682907104,53.588863372802734,-37.41455078125
0.768798828125,-0.3917236328125,-0.06884765625,-8.30078125,67.68798828125,-48.339839935302734
0.7257080078125,-0.34423828125,0.022216796875,-7.385253429412842,84.89989471435547,-62.499996185302734
0.6678466796875,-0.44482421875,-0.158935546875,-10.498045921325684,101.74559783935547,-77.69775390625
0.6141357421875,-0.48095703125,-0.1881103515625,-7.568358898162842,111.02294158935547,-88.25682830810547
0.522705078125,-0.496337890625,-0.164794921875,-4.2724609375,130.92041015625,-97.41210174560547
0.4488525390625,-0.665283203125,-0.503662109375,-13.916014671325684,132.080078125,-101.56249237060547
0.3228759765625,-0.56005859375,-0.2301025390625,-0.4272460639476776,137.02392578125,-110.90087127685547
0.2879638671875,-0.8660888671875,-0.7071533203125,-9.09423828125,140.44189453125,-104.85839080810547
0.1334228515625,-0.678955078125,-0.456787109375,8.4228515625,137.26806640625,-108.70360565185547
0.0709228515625,-0.8970947265625,-0.7447509765625,0.7324218153953552,133.11767578125,-101.13524627685547
-0.0775146484375,-0.779052734375,-0.6356201171875,15.136717796325684,125.85448455810547,-100.28075408935547
-0.151123046875,-0.8763427734375,-0.755126953125,7.019042491912842,117.79784393310547,-94.05516815185547
-0.2637939453125,-0.809326171875,-0.6876220703125,7.873534679412842,109.55809783935547,-93.07860565185547
-0.3087158203125,-0.840576171875,-0.6424560546875,-8.60595703125,103.45458221435547,-93.07860565185547
-0.419189453125,-0.774169921875,-0.697265625,-4.7607421875,97.16796112060547,-92.34618377685547
-0.4722900390625,-0.7779541015625,-0.5953369140625,-12.512206077575684,89.84374237060547,-89.78270721435547
-0.5557861328125,-0.765869140625,-0.602783203125,-3.479003667831421,89.84374237060547,-83.43505096435547
-0.6134033203125,-0.7467041015625,-0.5430908203125,-12.207030296325684,79.9560546875,-82.09227752685547
-0.6534423828125,-0.737548828125,-0.5283203125,-12.390135765075684,78.18603515625,-81.72606658935547
-0.7255859375,-0.6951904296875,-0.468994140625,-20.141599655151367,72.57080078125,-76.47705078125
-0.7471923828125,-0.6507568359375,-0.4375,-22.827146530151367,73.91357421875,-73.974609375
-0.8038330078125,-0.65966796875,-0.38134765625,-24.841306686401367,69.15283203125,-72.265625
-0.83740234375,-0.6263427734375,-0.3958740234375,-20.263669967651367,59.509273529052734,-66.40625
-0.8748779296875,-0.5892333984375,-0.31201171875,-15.808104515075684,51.025386810302734,-53.039546966552734
-0.870849609375,-0.6065673828125,-0.29638671875,-4.57763671875,41.381832122802734,-41.137691497802734
-0.8707275390625,-0.6026611328125,-0.284912109375,-0.9765624403953552,33.203125,-32.40966796875
-0.8704833984375,-0.5556640625,-0.2601318359375,4.94384765625,23.864744186401367,-20.446775436401367
-0.864501953125,-0.5631103515625,-0.2376708984375,3.479003667831421,16.6015625,-11.352538108825684
-0.8597412109375,-0.5238037109375,-0.219482421875,8.4228515625,11.169432640075684,-3.601073980331421
-0.8621826171875,-0.5018310546875,-0.2261962890625,10.009765625,7.934569835662842,0.2441406100988388
-0.869384765625,-0.4912109375,-0.209228515625,7.690429210662842,6.164550304412842,0.3662109076976776
-0.8671875,-0.4779052734375,-0.2000732421875,5.493163585662842,5.737304210662842,-0.1220703050494194
-0.8597412109375,-0.476318359375,-0.1912841796875,4.45556640625,4.7607421875,-0.3662109076976776
-0.8602294921875,-0.474365234375,-0.1812744140625,5.371093273162842,3.112792730331421,0.1831054538488388
-0.857421875,-0.4716796875,-0.18115234375,7.141112804412842,1.2817381620407104,2.563476324081421
-0.86767578125,-0.478759765625,-0.182373046875,4.7607421875,0.54931640625,2.868652105331421
-0.8807373046875,-0.4808349609375,-0.1690673828125,2.807616949081421,0.0610351525247097,2.0751953125
-0.8699951171875,-0.4716796875,-0.1668701171875,1.4648436307907104,0.0,1.3427733182907104
-0.8642578125,-0.44921875,-0.159912109375,-0.6713866591453552,0.0,-0.1220703050494194
-0.866943359375,-0.443115234375,-0.1766357421875,0.7934569716453552,-0.1831054538488388,0.7934569716453552
-0.882080078125,-0.4481201171875,-0.1610107421875,0.7324218153953552,-0.30517578125,-0.0610351525247097
-0.8721923828125,-0.4444580078125,-0.161376953125,0.54931640625,-0.4882812201976776,-1.4648436307907104
-0.8739013671875,-0.4566650390625,-0.1593017578125,-1.8920897245407104,0.3662109076976776,-3.662109136581421
-0.8756103515625,-0.462158203125,-0.168701171875,-1.9531248807907104,1.5258787870407104,-4.7607421875
-0.873291015625,-0.4544677734375,-0.156005859375,-2.3193359375,2.563476324081421,-5.249022960662842
-0.8701171875,-0.4608154296875,-0.1614990234375,-0.8544921278953552,2.0751953125,-4.33349609375
-0.8740234375,-0.4686279296875,-0.164794921875,0.6103515625,1.9531248807907104,-3.234863042831421
-0.8773193359375,-0.468994140625,-0.169921875,0.6103515625,1.8920897245407104,-1.8920897245407104
-0.881591796875,-0.471435546875,-0.164306640625,-0.1220703050494194,1.15966796875,-1.8310545682907104
-0.880126953125,-0.4749755859375,-0.1689453125,0.30517578125,0.6103515625,-0.8544921278953552
-0.8687744140625,-0.4686279296875,-0.1707763671875,-0.1220703050494194,-0.0610351525247097,-0.1220703050494194
-0.8697509765625,-0.452880859375,-0.1641845703125,-0.6713866591453552,-0.1831054538488388,0.4882812201976776
-0.877197265625,-0.455078125,-0.1705322265625,0.0610351525247097,-0.4272460639476776,1.0986328125
-0.8857421875,-0.4405517578125,-0.1651611328125,1.7700194120407104,-1.5258787870407104,1.4038084745407104
-0.8822021484375,-0.4437255859375,-0.166748046875,1.8920897245407104,-2.13623046875,1.0986328125
-0.876953125,-0.4521484375,-0.154541015625,0.30517578125,-1.4648436307907104,0.0610351525247097
-0.8848876953125,-0.456787109375,-0.16455078125,-2.868652105331421,-0.6103515625,-1.3427733182907104
-0.8814697265625,-0.4532470703125,-0.151123046875,-3.967284917831421,-0.1831054538488388,-1.4038084745407104
-0.87451171875,-0.446044921875,-0.15087890625,-1.6479490995407104,-0.54931640625,-1.0986328125
-0.8753662109375,-0.4521484375,-0.15966796875,0.7934569716453552,0.0,-0.54931640625
-0.87744140625,-0.45556640625,-0.1572265625,2.01416015625,0.6713866591453552,-0.6713866591453552
-0.880859375,-0.4639892578125,-0.1527099609375,0.54931640625,1.03759765625,-1.03759765625
-0.8760986328125,-0.467041015625,-0.1593017578125,-0.30517578125,1.15966796875,-0.7324218153953552
-0.87451171875,-0.4595947265625,-0.15625,-0.6713866591453552,1.2817381620407104,-0.6103515625
-0.871337890625,-0.4532470703125,-0.1610107421875,-0.2441406100988388,1.15966796875,-0.0610351525247097
-0.8748779296875,-0.44677734375,-0.164794921875,2.0751953125,0.7934569716453552,0.4882812201976776
-0.8829345703125,-0.4473876953125,-0.166748046875,3.662109136581421,0.6713866591453552,0.7324218153953552
-0.8804931640625,-0.449462890625,-0.159912109375,2.868652105331421,0.30517578125,-0.2441406100988388
-0.9306640625,-1.015380859375,-0.7017822265625,25.512693405151367,-103.02733612060547,112.85399627685547
-1.0535888671875,-1.049072265625,-0.856201171875,31.738279342651367,-150.0244140625,158.26416015625
-1.1624755859375,-1.102783203125,-0.9830322265625,41.076656341552734,-208.67918395996094,203.79637145996094
-1.046630859375,-1.0892333984375,-0.9232177734375,21.423337936401367,-239.13572692871094,222.77830505371094
-0.763671875,-1.1004638671875,-0.9014892578125,-7.507323741912842,-259.27734375,230.16355895996094
-0.53857421875,-0.8035888671875,-0.708740234375,-21.484373092651367,-263.00048828125,225.58592224121094
-0.4091796875,-0.6429443359375,-0.5157470703125,-11.047362327575684,-257.62939453125,214.72166442871094
-0.1878662109375,-0.5762939453125,-0.46728515625,-5.554198741912842,-233.58152770996094,200.62254333496094
-0.0413818359375,-0.4361572265625,-0.326171875,-1.0986328125,-207.88572692871094,179.62644958496094
0.1298828125,-0.394775390625,-0.2735595703125,19.47021484375,-187.01170349121094,154.9072265625
0.2789306640625,-0.3377685546875,-0.0867919921875,25.268552780151367,-170.95945739746094,132.32421875
0.430908203125,-0.332763671875,-0.0364990234375,33.0810546875,-144.47021484375,107.29979705810547
0.5726318359375,-0.3282470703125,0.0296630859375,21.362302780151367,-118.40819549560547,86.42577362060547
0.717041015625,-0.2552490234375,0.1339111328125,23.925779342651367,-93.68895721435547,67.56591796875
0.8153076171875,-0.2589111328125,0.240966796875,10.253905296325684,-67.5048828125,50.048824310302734
0.8717041015625,-0.2374267578125,0.2093505859375,2.0751953125,-40.649410247802734,36.62109375
0.892822265625,-0.2005615234375,0.24609375,0.30517578125,-19.4091796875,21.484373092651367
0.9122314453125,-0.2567138671875,0.165283203125,-2.0751953125,-5.065917491912842,10.620116233825684
0.9222412109375,-0.232666015625,0.1099853515625,-2.0751953125,0.6103515625,3.173827886581421
0.9234619140625,-0.2567138671875,0.098388671875,-3.479003667831421,2.807616949081421,-0.4272460639476776
0.92919921875,-0.2835693359375,0.0567626953125,-5.615233898162842,4.33349609375,-3.601073980331421
0.9456787109375,-0.283203125,0.0296630859375,-1.7700194120407104,3.479003667831421,-4.57763671875
0.9578857421875,-0.248046875,0.1009521484375,2.3193359375,5.187987804412842,-5.065917491912842
0.95361328125,-0.261962890625,0.0745849609375,1.8310545682907104,5.187987804412842,-3.479003667831421
0.9334716796875,-0.2589111328125,0.09033203125,-2.38037109375,8.7890625,-4.82177734375
0.90625,-0.2489013671875,0.0943603515625,-3.417968511581421,15.319823265075684,-9.1552734375
0.877685546875,-0.23291015625,0.1375732421875,-0.3662109076976776,25.207517623901367,-15.747069358825684
0.8660888671875,-0.22802734375,0.117431640625,-0.4272460639476776,36.1328125,-22.583005905151367
0.845703125,-0.2576904296875,0.0709228515625,-4.0283203125,49.926753997802734,-33.8134765625
0.8170166015625,-0.2552490234375,0.077392578125,-7.934569835662842,65.85693359375,-48.156734466552734
0.81201171875,-0.3109130859375,0.0025634765625,-12.390135765075684,80.50536346435547,-60.913082122802734
0.7677001953125,-0.2967529296875,-0.0205078125,-12.573241233825684,93.56688690185547,-73.79150390625
0.72119140625,-0.4036865234375,-0.146484375,-8.7890625,105.40770721435547,-82.76366424560547
0.6617431640625,-0.4495849609375,-0.1962890625,-2.746581792831421,111.02294158935547,-88.86717987060547
0.6162109375,-0.4495849609375,-0.2032470703125,-2.01416015625,119.38475799560547,-96.92382049560547
0.5726318359375,-0.607177734375,-0.4342041015625,-0.2441406100988388,124.51171112060547,-97.96141815185547
0.474853515625,-0.6021728515625,-0.406005859375,-2.01416015625,121.88719940185547,-105.22460174560547
0.3922119140625,-0.70361328125,-0.4964599609375,-2.685546636581421,124.14550018310547,-103.08837127685547
0.2969970703125,-0.7691650390625,-0.5992431640625,-4.94384765625,121.70409393310547,-100.76903533935547
0.203369140625,-0.77392578125,-0.548095703125,-6.896972179412842,118.53026580810547,-99.36522674560547
0.1083984375,-0.850830078125,-0.7313232421875,0.0,114.13573455810547,-94.17723846435547
0.0059814453125,-0.779052734375,-0.5562744140625,5.676269054412842,107.78807830810547,-96.86278533935547
-0.08251953125,-0.8441162109375,-0.714111328125,2.3193359375,105.77391815185547,-94.72655487060547
-0.17333984375,-0.8079833984375,-0.63623046875,5.493163585662842,98.63280487060547,-95.03173065185547
-0.2698974609375,-0.7998046875,-0.639404296875,-0.8544921278953552,97.16796112060547,-96.74071502685547
-0.3594970703125,-0.8431396484375,-0.7100830078125,-6.530761241912842,89.17235565185547,-89.47753143310547
-0.42822265625,-0.76513671875,-0.5869140625,-12.023924827575684,88.50096893310547,-88.37889862060547
-0.4930419921875,-0.8309326171875,-0.680419921875,0.4882812201976776,81.35985565185547,-80.87157440185547
-0.5269775390625,-0.783447265625,-0.6072998046875,4.8828125,72.93701171875,-76.23291015625
-0.59423828125,-0.7635498046875,-0.5921630859375,3.967284917831421,65.61279296875,-61.401363372802734
-0.6544189453125,-0.7158203125,-0.5433349609375,-1.4648436307907104,55.847164154052734,-55.297847747802734
-0.692138671875,-0.6781005859375,-0.4810791015625,-5.615233898162842,54.199214935302734,-49.804683685302734
-0.7119140625,-0.6727294921875,-0.4967041015625,-7.263183116912842,47.424312591552734,-42.968746185302734
-0.7332763671875,-0.6209716796875,-0.43408203125,-8.85009765625,43.334957122802734,-38.39111328125
-0.7554931640625,-0.623779296875,-0.400390625,-11.535643577575684,38.14697265625,-35.21728515625
-0.7772216796875,-0.59521484375,-0.3822021484375,-10.009765625,36.31591796875,-30.395505905151367
-0.786376953125,-0.5509033203125,-0.3514404296875,-11.840819358825684,33.5693359375,-30.883787155151367
-0.8070068359375,-0.5333251953125,-0.318115234375,-11.962889671325684,31.616209030151367,-29.418943405151367
-0.822021484375,-0.544677734375,-0.31982421875,-10.070799827575684,28.747556686401367,-23.986814498901367
-0.83203125,-0.5126953125,-0.2705078125,-4.150390625,25.268552780151367,-22.094724655151367
-0.8433837890625,-0.5277099609375,-0.2706298828125,-2.990722417831421,21.484373092651367,-18.24951171875
-0.8516845703125,-0.512451171875,-0.26220703125,3.601073980331421,17.63916015625,-12.084959983825684
-0.850341796875,-0.49853515625,-0.2486572265625,6.835937023162842,13.916014671325684,-9.33837890625
-0.857421875,-0.5067138671875,-0.237548828125,3.417968511581421,11.962889671325684,-9.58251953125
-0.8546142578125,-0.5120849609375,-0.2471923828125,2.624511480331421,9.3994140625,-6.652831554412842
-0.854736328125,-0.4951171875,-0.2255859375,0.7934569716453552,7.385253429412842,-5.676269054412842
-0.860595703125,-0.48681640625,-0.2222900390625,0.6713866591453552,6.164550304412842,-4.39453125
-0.8497314453125,-0.49365234375,-0.2354736328125,2.01416015625,4.638671875,-1.7089842557907104
-0.8590087890625,-0.482177734375,-0.2152099609375,2.25830078125,2.563476324081421,-0.7324218153953552
-0.8642578125,-0.4609375,-0.2288818359375,3.723144292831421,1.8920897245407104,0.0
-0.8653564453125,-0.4630126953125,-0.20947265625,0.6103515625,1.03759765625,-0.1220703050494194
-0.8621826171875,-0.4639892578125,-0.202880859375,-0.8544921278953552,0.2441406100988388,-0.9155272841453552
-0.86865234375,-0.4647216796875,-0.220703125,-0.4272460639476776,1.03759765625,-1.03759765625
-0.8743896484375,-0.4554443359375,-0.1978759765625,-2.807616949081421,0.54931640625,-2.13623046875
-0.865966796875,-0.45947265625,-0.197509765625,-0.9765624403953552,0.0,-1.15966796875
-0.85693359375,-0.4605712890625,-0.2052001953125,0.7324218153953552,-0.4272460639476776,-0.3662109076976776
-0.8621826171875,-0.4637451171875,-0.19775390625,0.0610351525247097,-0.2441406100988388,-1.2817381620407104
-0.8680419921875,-0.46923828125,-0.1942138671875,-0.2441406100988388,0.1831054538488388,-1.6479490995407104
-0.8653564453125,-0.4642333984375,-0.194580078125,0.3662109076976776,0.30517578125,-1.7089842557907104
-0.8665771484375,-0.468505859375,-0.205810546875,-1.03759765625,0.6103515625,-1.220703125
-0.87060546875,-0.4522705078125,-0.1993408203125,-1.5869139432907104,0.7324218153953552,-1.2817381620407104
-0.8729248046875,-0.4464111328125,-0.200439453125,-1.3427733182907104,0.2441406100988388,-1.15966796875
-0.8731689453125,-0.449951171875,-0.2030029296875,0.54931640625,-0.4882812201976776,-0.8544921278953552
-0.8690185546875,-0.4530029296875,-0.1944580078125,0.4882812201976776,-0.4272460639476776,-1.4038084745407104
-0.8671875,-0.456787109375,-0.1932373046875,0.0,0.3662109076976776,-2.563476324081421
-0.8695068359375,-0.4578857421875,-0.1925048828125,-1.0986328125,0.9765624403953552,-2.990722417831421
-0.8697509765625,-0.460693359375,-0.1912841796875,0.0,1.5258787870407104,-2.746581792831421
-0.87353515625,-0.461669921875,-0.1888427734375,0.54931640625,1.4038084745407104,-2.01416015625
-0.8778076171875,-0.4617919921875,-0.1954345703125,1.4648436307907104,1.0986328125,-1.15966796875
-0.877685546875,-0.456298828125,-0.1953125,1.3427733182907104,1.03759765625,-0.6713866591453552
-0.8681640625,-0.4586181640625,-0.1895751953125,-0.4882812201976776,0.9765624403953552,-0.9155272841453552
-0.8704833984375,-0.454833984375,-0.197509765625,-0.3662109076976776,0.7324218153953552,-0.8544921278953552
-0.87841796875,-0.4500732421875,-0.1953125,1.03759765625,1.03759765625,-0.4882812201976776
-0.87060546875,-0.446044921875,-0.1949462890625,1.6479490995407104,0.8544921278953552,-0.6103515625
-0.8739013671875,-0.45166015625,-0.1959228515625,1.8920897245407104,0.2441406100988388,0.0610351525247097
-0.879638671875,-0.4564208984375,-0.1966552734375,-0.1220703050494194,0.2441406100988388,-0.1831054538488388
-0.868408203125,-0.45654296875,-0.189453125,-1.4648436307907104,0.2441406100988388,-0.30517578125
-0.8675537109375,-0.454345703125,-0.188232421875,-0.6713866591453552,-0.0610351525247097,-0.7324218153953552
-0.86962890625,-0.4627685546875,-0.201171875,1.8920897245407104,0.1220703050494194,-0.7324218153953552
-0.99755859375,-0.94921875,-0.736572265625,50.354000091552734,-107.17772674560547,119.38475799560547
-1.1058349609375,-1.0069580078125,-0.8834228515625,59.326168060302734,-167.72459411621094,164.42869567871094
-1.02685546875,-1.0548095703125,-0.9869384765625,26.794431686401367,-212.03611755371094,193.96971130371094
-0.9395751953125,-1.0531005859375,-0.9608154296875,-10.986327171325684,-240.47850036621094,212.40232849121094
-0.7794189453125,-0.940673828125,-0.8116455078125,-22.460935592651367,-256.89697265625,217.83445739746094
-0.537353515625,-0.8341064453125,-0.73779296875,-18.4326171875,-260.55908203125,219.84861755371094
-0.407958984375,-0.7344970703125,-0.635498046875,-7.141112804412842,-257.99560546875,215.75926208496094
-0.1766357421875,-0.4954833984375,-0.347900390625,-9.521484375,-238.40330505371094,197.75389099121094
0.0179443359375,-0.5203857421875,-0.3934326171875,-14.709471702575684,-221.06932067871094,183.83787536621094
0.0672607421875,-0.424560546875,-0.2655029296875,-10.314940452575684,-199.70701599121094,160.33935546875
0.2369384765625,-0.2801513671875,-0.047607421875,-1.8920897245407104,-171.63084411621094,136.8408203125
0.396728515625,-0.3533935546875,-0.0982666015625,10.070799827575684,-142.2119140625,116.02782440185547
0.55419921875,-0.258544921875,0.086181640625,12.756346702575684,-116.63817596435547,93.44481658935547
0.7275390625,-0.2275390625,0.1571044921875,16.2353515625,-83.61815643310547,72.44873046875
0.8160400390625,-0.1910400390625,0.199462890625,6.896972179412842,-60.363765716552734,52.124019622802734
0.888427734375,-0.1678466796875,0.319091796875,10.620116233825684,-40.893550872802734,36.4990234375
0.91552734375,-0.1866455078125,0.263427734375,-3.417968511581421,-15.991209983825684,18.9208984375
0.91943359375,-0.196044921875,0.1875,-9.33837890625,-1.5869139432907104,6.347655773162842
0.9080810546875,-0.2392578125,0.1114501953125,-9.765625,3.540038824081421,-4.150390625
0.92919921875,-0.267578125,0.0919189453125,-6.713866710662842,4.39453125,-9.8876953125
0.962646484375,-0.26611328125,0.0323486328125,-3.967284917831421,2.929687261581421,-9.21630859375
0.96826171875,-0.292724609375,0.059326171875,0.4882812201976776,1.3427733182907104,-4.45556640625
0.97412109375,-0.305419921875,0.0712890625,3.601073980331421,0.6103515625,2.3193359375
0.9642333984375,-0.251953125,0.1298828125,5.0048828125,-0.0610351525247097,2.50244140625
0.91943359375,-0.227294921875,0.16015625,1.6479490995407104,5.859374523162842,-2.563476324081421
0.8795166015625,-0.2166748046875,0.130859375,-3.723144292831421,12.573241233825684,-8.1787109375
0.852783203125,-0.1812744140625,0.1649169921875,-2.807616949081421,25.695798873901367,-19.10400390625
0.839111328125,-0.1993408203125,0.1326904296875,1.5258787870407104,41.625972747802734,-31.311033248901367
0.816650390625,-0.21240234375,0.10986328125,3.295898199081421,58.105464935302734,-45.776363372802734
0.80859375,-0.246826171875,0.0584716796875,0.4272460639476776,76.416015625,-59.631343841552734
0.7757568359375,-0.328857421875,-0.024169921875,-1.8920897245407104,89.84374237060547,-71.35009765625
0.7523193359375,-0.349609375,-0.036865234375,0.6103515625,98.26659393310547,-81.60399627685547
0.706787109375,-0.4110107421875,-0.154052734375,3.051757574081421,108.58153533935547,-91.18651580810547
0.649169921875,-0.5167236328125,-0.26025390625,1.5869139432907104,112.67089080810547,-98.38866424560547
0.6148681640625,-0.54296875,-0.2777099609375,-0.6103515625,113.70848846435547,-105.22460174560547
0.5323486328125,-0.6304931640625,-0.3375244140625,-9.21630859375,113.83055877685547,-107.78807830810547
0.4259033203125,-0.721435546875,-0.5341796875,-4.7607421875,114.07469940185547,-104.00389862060547
0.36767578125,-0.704833984375,-0.5052490234375,-5.920409679412842,112.85399627685547,-102.90526580810547
0.2657470703125,-0.826171875,-0.6160888671875,-1.6479490995407104,107.29979705810547,-93.74999237060547
0.176513671875,-0.8201904296875,-0.596435546875,1.3427733182907104,101.01317596435547,-87.95165252685547
0.1285400390625,-0.8563232421875,-0.5858154296875,3.173827886581421,100.09764862060547,-85.81542205810547
0.008056640625,-0.8446044921875,-0.6832275390625,8.9111328125,91.00341033935547,-85.63231658935547
-0.026611328125,-0.8187255859375,-0.5184326171875,5.920409679412842,90.02684783935547,-88.98925018310547
-0.14208984375,-0.8651123046875,-0.71533203125,4.2724609375,90.94237518310547,-85.32714080810547
-0.2064208984375,-0.8292236328125,-0.5887451171875,-2.807616949081421,86.79198455810547,-81.72606658935547
-0.2620849609375,-0.8232421875,-0.6015625,-0.2441406100988388,90.02684783935547,-80.13916015625
-0.3511962890625,-0.8321533203125,-0.658935546875,-1.2817381620407104,81.72606658935547,-78.18603515625
-0.403076171875,-0.7615966796875,-0.513916015625,0.2441406100988388,80.01708984375,-79.89501953125
-0.4466552734375,-0.814453125,-0.6756591796875,4.638671875,76.416015625,-74.15771484375
-0.53076171875,-0.7501220703125,-0.5325927734375,-1.7089842557907104,72.08251953125,-71.22802734375
-0.576416015625,-0.7559814453125,-0.56494140625,8.85009765625,65.00244140625,-64.0869140625
-0.60986328125,-0.7357177734375,-0.566650390625,1.3427733182907104,60.974117279052734,-60.241695404052734
-0.6571044921875,-0.70458984375,-0.476318359375,4.8828125,54.931636810302734,-54.199214935302734
-0.6767578125,-0.685791015625,-0.440185546875,-6.835937023162842,56.884761810302734,-50.170894622802734
-0.6878662109375,-0.71484375,-0.507568359375,-9.27734375,48.583980560302734,-47.058101654052734
-0.7261962890625,-0.64306640625,-0.4144287109375,-16.66259765625,44.128414154052734,-43.762203216552734
-0.7454833984375,-0.6436767578125,-0.386962890625,-15.502928733825684,42.053218841552734,-40.10009765625
-0.7611083984375,-0.62060546875,-0.3680419921875,-15.869139671325684,40.222164154052734,-39.24560546875
-0.7899169921875,-0.5714111328125,-0.3160400390625,-17.08984375,37.04833984375,-39.12353515625
-0.8167724609375,-0.5523681640625,-0.3062744140625,-16.05224609375,35.15625,-36.1328125
-0.8319091796875,-0.563232421875,-0.282470703125,-11.840819358825684,29.052732467651367,-30.334470748901367
-0.85888671875,-0.5435791015625,-0.245361328125,-9.27734375,26.245115280151367,-25.329587936401367
-0.85595703125,-0.5498046875,-0.2645263671875,-4.638671875,21.057126998901367,-20.141599655151367
-0.849609375,-0.530029296875,-0.2286376953125,-1.7089842557907104,15.197752952575684,-12.756346702575684
-0.8485107421875,-0.5299072265625,-0.221435546875,2.929687261581421,10.681151390075684,-8.7890625
-0.8558349609375,-0.5267333984375,-0.235595703125,7.263183116912842,6.652831554412842,-3.234863042831421
-0.8614501953125,-0.50927734375,-0.212646484375,5.615233898162842,4.08935546875,-1.15966796875
-0.84912109375,-0.499755859375,-0.206298828125,3.173827886581421,2.25830078125,-0.9155272841453552
-0.84765625,-0.5010986328125,-0.216552734375,-1.3427733182907104,1.3427733182907104,0.3662109076976776
-0.854736328125,-0.4859619140625,-0.202880859375,-2.746581792831421,0.7324218153953552,-0.54931640625
-0.858154296875,-0.4925537109375,-0.1995849609375,-1.5869139432907104,-0.1220703050494194,-0.1220703050494194
-0.8609619140625,-0.4842529296875,-0.1820068359375,-1.4648436307907104,-0.54931640625,-0.7324218153953552
-0.8621826171875,-0.49072265625,-0.196044921875,1.03759765625,-0.54931640625,-0.3662109076976776
-0.860595703125,-0.478271484375,-0.1845703125,-0.3662109076976776,-1.15966796875,-0.2441406100988388
-0.8546142578125,-0.4906005859375,-0.185546875,1.3427733182907104,-0.9765624403953552,0.7324218153953552
-0.8531494140625,-0.4910888671875,-0.180908203125,0.1831054538488388,-1.3427733182907104,0.4882812201976776
-0.8568115234375,-0.48681640625,-0.1810302734375,-0.7934569716453552,-1.4648436307907104,0.4272460639476776
-0.8629150390625,-0.4893798828125,-0.1859130859375,0.6713866591453552,-0.4882812201976776,0.9765624403953552
-0.859619140625,-0.4703369140625,-0.1754150390625,-1.15966796875,-0.2441406100988388,-0.1831054538488388
-0.8594970703125,-0.4725341796875,-0.17822265625,-0.4272460639476776,-0.54931640625,0.0610351525247097
-0.8514404296875,-0.4552001953125,-0.1837158203125,5.0048828125,-0.1220703050494194,1.4648436307907104
-0.86376953125,-0.4786376953125,-0.180419921875,0.7934569716453552,0.6103515625,-1.6479490995407104
-0.8719482421875,-0.4781494140625,-0.1776123046875,0.1831054538488388,2.197265625,-3.234863042831421
-0.8636474609375,-0.4779052734375,-0.1759033203125,-0.8544921278953552,2.624511480331421,-3.051757574081421
-0.8585205078125,-0.4814453125,-0.176513671875,-1.6479490995407104,2.13623046875,-2.807616949081421
-0.8587646484375,-0.485595703125,-0.1722412109375,0.4272460639476776,2.50244140625,-2.01416015625
-0.859130859375,-0.498046875,-0.184814453125,1.6479490995407104,2.746581792831421,-1.6479490995407104
-0.8602294921875,-0.4969482421875,-0.1739501953125,-0.30517578125,2.746581792831421,-2.01416015625
-0.860595703125,-0.495361328125,-0.179443359375,-0.2441406100988388,3.051757574081421,-1.03759765625
-0.8587646484375,-0.4840087890625,-0.1839599609375,-1.3427733182907104,2.44140625,0.0610351525247097
-0.8616943359375,-0.4737548828125,-0.1815185546875,-0.1220703050494194,1.7700194120407104,0.8544921278953552
-0.864501953125,-0.465576171875,-0.182861328125,1.8920897245407104,1.03759765625,1.2817381620407104
-0.8656005859375,-0.4652099609375,-0.1812744140625,2.38037109375,0.54931640625,1.0986328125
-0.86279296875,-0.474365234375,-0.1829833984375,2.0751953125,0.8544921278953552,-0.30517578125
-0.864990234375,-0.4737548828125,-0.17724609375,-0.9155272841453552,1.03759765625,-1.9531248807907104
-0.8636474609375,-0.4664306640625,-0.170654296875,-1.6479490995407104,0.7934569716453552,-2.0751953125
-0.86279296875,-0.46826171875,-0.17529296875,-1.0986328125,0.4272460639476776,-1.4648436307907104
-0.863037109375,-0.469482421875,-0.1715087890625,-0.30517578125,0.2441406100988388,-1.6479490995407104
-0.8680419921875,-0.4808349609375,-0.1737060546875,0.0,0.7324218153953552,-2.197265625
-0.872314453125,-0.4866943359375,-0.171875,-1.8310545682907104,0.6103515625,-2.868652105331421
-0.9593505859375,-1.0338134765625,-0.696044921875,40.710445404052734,-105.34667205810547,123.71825408935547
-1.124267578125,-1.0426025390625,-0.8365478515625,57.861324310302734,-162.59764099121094,172.36326599121094
-1.0950927734375,-1.13232421875,-0.985595703125,48.950191497802734,-213.92820739746094,211.54783630371094
-0.9088134765625,-1.1475830078125,-1.009765625,10.742186546325684,-247.43650817871094,231.87254333496094
-0.6529541015625,-0.9805908203125,-0.7684326171875,-27.954099655151367,-263.7939453125,232.97117614746094
-0.3353271484375,-0.781005859375,-0.6585693359375,-26.916501998901367,-258.72802734375,232.48289489746094
-0.3017578125,-0.653564453125,-0.5435791015625,-20.141599655151367,-258.23974609375,223.87693786621094
-0.115478515625,-0.476318359375,-0.328369140625,-8.11767578125,-236.63328552246094,209.35057067871094
0.085693359375,-0.3956298828125,-0.2794189453125,-5.676269054412842,-209.28953552246094,190.18553161621094
0.153076171875,-0.3707275390625,-0.24072265625,3.112792730331421,-180.05369567871094,165.95457458496094
0.2979736328125,-0.2611083984375,-0.0147705078125,6.225585460662842,-151.42822265625,134.033203125
0.4866943359375,-0.2301025390625,0.095703125,15.136717796325684,-126.40380096435547,111.14501190185547
0.6361083984375,-0.200927734375,0.1273193359375,16.357421875,-97.16796112060547,83.12987518310547
0.765625,-0.161865234375,0.2540283203125,16.6015625,-69.88525390625,57.006832122802734
0.877197265625,-0.2117919921875,0.3294677734375,5.615233898162842,-38.2080078125,35.2783203125
0.9112548828125,-0.23486328125,0.0908203125,-19.53125,11.291502952575684,-14.892577171325684
0.932861328125,-0.2545166015625,0.054931640625,-9.033203125,10.925292015075684,-20.751951217651367
0.9698486328125,-0.26220703125,0.055419921875,-3.662109136581421,9.94873046875,-17.88330078125
0.953369140625,-0.304931640625,-0.0050048828125,-3.356933355331421,7.446288585662842,-11.047362327575684
0.9544677734375,-0.2535400390625,0.115478515625,-2.807616949081421,8.11767578125,-8.9111328125
0.9053955078125,-0.25830078125,0.1243896484375,0.30517578125,16.357421875,-11.779784202575684
0.879638671875,-0.2620849609375,0.09912109375,3.051757574081421,24.780271530151367,-17.63916015625
0.8662109375,-0.249755859375,0.12646484375,4.08935546875,35.94970703125,-27.404783248901367
0.85400390625,-0.27294921875,0.103759765625,2.0751953125,46.752925872802734,-34.85107421875
0.8353271484375,-0.2841796875,0.0418701171875,-2.01416015625,58.776851654052734,-46.081539154052734
0.808837890625,-0.3328857421875,-0.0323486328125,-3.234863042831421,67.68798828125,-58.471675872802734
0.7886962890625,-0.3441162109375,-0.0166015625,0.30517578125,78.43017578125,-69.64111328125
0.742919921875,-0.45751953125,-0.194580078125,3.295898199081421,86.12059783935547,-77.63671875
0.7357177734375,-0.436767578125,-0.1708984375,10.986327171325684,89.53856658935547,-85.69335174560547
0.6806640625,-0.568115234375,-0.2957763671875,12.756346702575684,92.04100799560547,-87.21923065185547
0.6318359375,-0.5887451171875,-0.3541259765625,11.108397483825684,88.43993377685547,-86.73094940185547
0.6024169921875,-0.6500244140625,-0.4052734375,9.21630859375,87.82958221435547,-83.92333221435547
0.5130615234375,-0.700439453125,-0.4635009765625,4.638671875,85.93749237060547,-82.03124237060547
0.4400634765625,-0.7109375,-0.4263916015625,5.737304210662842,84.47264862060547,-81.05467987060547
0.388427734375,-0.8045654296875,-0.609375,6.042479991912842,78.30810546875,-77.45361328125
0.3245849609375,-0.7423095703125,-0.461669921875,12.573241233825684,77.1484375,-79.58984375
0.2703857421875,-0.845458984375,-0.60546875,4.5166015625,77.0263671875,-76.84326171875
0.1715087890625,-0.77294921875,-0.54833984375,2.563476324081421,73.73046875,-73.66943359375
0.1090087890625,-0.7923583984375,-0.5506591796875,-4.2724609375,75.98876953125,-72.021484375
0.038330078125,-0.83740234375,-0.667724609375,-9.46044921875,76.5380859375,-69.82421875
-0.0482177734375,-0.7757568359375,-0.562255859375,1.5869139432907104,70.80078125,-70.556640625
-0.1097412109375,-0.7989501953125,-0.5751953125,-0.4882812201976776,76.416015625,-70.4345703125
-0.153564453125,-0.839111328125,-0.6612548828125,-0.4882812201976776,71.59423828125,-69.580078125
-0.234130859375,-0.796630859375,-0.5496826171875,-5.615233898162842,72.57080078125,-72.1435546875
-0.2666015625,-0.837158203125,-0.6541748046875,3.234863042831421,71.533203125,-69.7021484375
-0.3345947265625,-0.787353515625,-0.554931640625,-3.662109136581421,68.29833984375,-69.580078125
-0.37548828125,-0.817138671875,-0.601318359375,3.906249761581421,69.39697265625,-66.10107421875
-0.4412841796875,-0.800048828125,-0.566650390625,-3.540038824081421,65.24658203125,-63.171382904052734
-0.482666015625,-0.8126220703125,-0.55419921875,5.126952648162842,62.927242279052734,-59.631343841552734
-0.5162353515625,-0.7867431640625,-0.552001953125,0.6713866591453552,58.776851654052734,-58.593746185302734
-0.548828125,-0.7515869140625,-0.552734375,6.713866710662842,56.091304779052734,-52.429195404052734
-0.59326171875,-0.72265625,-0.5029296875,0.54931640625,52.185054779052734,-47.363277435302734
-0.63330078125,-0.7059326171875,-0.524658203125,0.6103515625,49.194332122802734,-43.029781341552734
-0.6876220703125,-0.6788330078125,-0.42578125,-4.638671875,40.588375091552734,-39.85595703125
-0.686767578125,-0.6600341796875,-0.457763671875,-4.7607421875,38.6962890625,-37.90283203125
-0.7115478515625,-0.6580810546875,-0.4249267578125,-9.765625,33.0810546875,-36.43798828125
-0.7235107421875,-0.6297607421875,-0.3759765625,-11.108397483825684,31.616209030151367,-33.75244140625
-0.7442626953125,-0.628662109375,-0.367431640625,-10.192870140075684,29.785154342651367,-30.456541061401367
-0.7469482421875,-0.61181640625,-0.36572265625,-7.629394054412842,25.573728561401367,-27.526853561401367
-0.7724609375,-0.604248046875,-0.3326416015625,-4.5166015625,21.667478561401367,-23.132322311401367
-0.7821044921875,-0.597412109375,-0.3280029296875,-0.7934569716453552,20.690916061401367,-19.6533203125
-0.7825927734375,-0.597900390625,-0.3057861328125,-3.051757574081421,19.83642578125,-18.12744140625
-0.7822265625,-0.56982421875,-0.27978515625,-5.920409679412842,19.4091796875,-17.08984375
-0.80078125,-0.5443115234375,-0.2745361328125,-6.164550304412842,18.6767578125,-14.831542015075684
-0.8143310546875,-0.5228271484375,-0.255126953125,-5.0048828125,18.24951171875,-13.549803733825684
-0.8333740234375,-0.5255126953125,-0.2332763671875,-6.042479991912842,17.39501953125,-13.244627952575684
-0.84716796875,-0.4957275390625,-0.2244873046875,-6.835937023162842,16.845703125,-13.671874046325684
-0.853271484375,-0.490234375,-0.2271728515625,-6.652831554412842,16.17431640625,-13.977049827575684
-0.8468017578125,-0.50390625,-0.2125244140625,-5.249022960662842,14.587401390075684,-13.732909202575684
-0.8494873046875,-0.4923095703125,-0.19287109375,-0.54931640625,13.122557640075684,-12.512206077575684
-0.8538818359375,-0.49609375,-0.196044921875,4.94384765625,12.023924827575684,-11.230467796325684
-0.85888671875,-0.5208740234375,-0.2008056640625,5.249022960662842,10.253905296325684,-8.11767578125
-0.8642578125,-0.5225830078125,-0.1807861328125,1.5869139432907104,8.7890625,-7.995604991912842
-0.86279296875,-0.526611328125,-0.186279296875,-0.8544921278953552,7.385253429412842,-5.859374523162842
-0.8482666015625,-0.509521484375,-0.18603515625,-2.01416015625,6.164550304412842,-3.417968511581421
-0.8505859375,-0.4776611328125,-0.17626953125,-2.807616949081421,5.371093273162842,-2.3193359375
-0.861083984375,-0.4888916015625,-0.193603515625,1.8310545682907104,4.69970703125,-0.0610351525247097
-0.8648681640625,-0.4791259765625,-0.18115234375,5.554198741912842,3.540038824081421,0.4272460639476776
-0.8707275390625,-0.479248046875,-0.174560546875,3.723144292831421,2.197265625,-0.1220703050494194
-0.8704833984375,-0.4761962890625,-0.18505859375,4.21142578125,2.44140625,0.4882812201976776
-0.861083984375,-0.468505859375,-0.1669921875,0.6103515625,1.8920897245407104,-0.6713866591453552
-0.8707275390625,-0.4805908203125,-0.1683349609375,0.1831054538488388,1.5869139432907104,-0.8544921278953552
-0.8663330078125,-0.4715576171875,-0.177734375,2.990722417831421,1.4648436307907104,-0.3662109076976776
-0.86376953125,-0.473388671875,-0.16259765625,0.6713866591453552,1.15966796875,-1.5258787870407104
-0.864501953125,-0.483642578125,-0.1673583984375,0.9155272841453552,0.54931640625,-1.15966796875
-0.862060546875,-0.485595703125,-0.1712646484375,1.7089842557907104,0.54931640625,-0.7934569716453552
-0.860595703125,-0.478759765625,-0.1673583984375,-2.01416015625,-0.0610351525247097,-1.6479490995407104
-0.863037109375,-0.46728515625,-0.165771484375,-0.4882812201976776,-0.1831054538488388,-0.3662109076976776
-0.8704833984375,-0.4683837890625,-0.1739501953125,0.6713866591453552,-0.8544921278953552,0.0
-0.877685546875,-0.4644775390625,-0.162841796875,1.220703125,-1.15966796875,-0.4882812201976776
-0.870361328125,-0.46435546875,-0.165771484375,0.4882812201976776,-1.03759765625,-0.9765624403953552
-0.8671875,-0.4617919921875,-0.16162109375,-0.0610351525247097,-1.0986328125,-2.01416015625
-0.8692626953125,-0.471923828125,-0.1636962890625,-0.54931640625,-0.6713866591453552,-2.01416015625
-0.868408203125,-0.4737548828125,-0.15576171875,-1.5869139432907104,0.30517578125,-2.13623046875
-0.8741455078125,-0.47509765625,-0.1568603515625,-0.7934569716453552,0.4272460639476776,-2.3193359375
-0.8759765625,-0.469482421875,-0.156005859375,-0.1831054538488388,0.1220703050494194,-1.6479490995407104
-0.8719482421875,-0.4810791015625,-0.1624755859375,1.220703125,0.6103515625,-0.7934569716453552
-0.8697509765625,-0.474853515625,-0.153564453125,-1.6479490995407104,0.9155272841453552,-0.9765624403953552
-0.9853515625,-0.9892578125,-0.6787109375,48.461910247802734,-122.19237518310547,127.01415252685547
-1.10107421875,-1.0633544921875,-0.871337890625,62.499996185302734,-175.72019958496094,170.83738708496094
-1.0972900390625,-1.12744140625,-0.9453125,46.630855560302734,-222.41209411621094,206.78709411621094
-0.8604736328125,-1.13134765625,-0.91845703125,6.408690929412842,-245.54441833496094,223.08348083496094
-0.6934814453125,-0.983642578125,-0.7449951171875,-18.73779296875,-262.451171875,223.69383239746094
-0.33984375,-0.756591796875,-0.6199951171875,-20.568845748901367,-257.87353515625,222.22898864746094
-0.3055419921875,-0.7247314453125,-0.58935546875,-16.4794921875,-254.33348083496094,214.35545349121094
-0.1280517578125,-0.442138671875,-0.336181640625,-11.779784202575684,-236.75535583496094,198.73045349121094
0.089111328125,-0.441162109375,-0.3343505859375,-3.173827886581421,-212.95164489746094,181.57957458496094
0.158935546875,-0.3458251953125,-0.1842041015625,1.5258787870407104,-191.77244567871094,154.4189453125
0.33056640625,-0.3197021484375,-0.0982666015625,1.15966796875,-167.23631286621094,131.04248046875
0.44189453125,-0.2197265625,0.061767578125,5.737304210662842,-139.404296875,104.43114471435547
0.60791015625,-0.226806640625,0.117919921875,9.765625,-120.05614471435547,87.46337127685547
0.74072265625,-0.1461181640625,0.231201171875,20.690916061401367,-94.42137908935547,67.32177734375
0.8575439453125,-0.1614990234375,0.3828125,5.920409679412842,-62.194820404052734,49.621578216552734
0.8973388671875,-0.125,0.3541259765625,-4.33349609375,-31.311033248901367,33.75244140625
0.901123046875,-0.117919921875,0.362060546875,-11.779784202575684,-4.69970703125,13.000487327575684
0.890380859375,-0.192626953125,0.1993408203125,-7.080077648162842,6.713866710662842,0.7324218153953552
0.905029296875,-0.205810546875,0.16796875,-0.7324218153953552,5.432128429412842,-5.126952648162842
0.9078369140625,-0.2518310546875,0.128173828125,1.03759765625,5.0048828125,-6.958007335662842
0.929931640625,-0.2186279296875,0.162109375,4.33349609375,5.554198741912842,-8.1787109375
0.921142578125,-0.2127685546875,0.1712646484375,5.371093273162842,9.94873046875,-9.521484375
0.8983154296875,-0.23291015625,0.1678466796875,3.540038824081421,17.15087890625,-13.061522483825684
0.88623046875,-0.18896484375,0.23486328125,-1.2817381620407104,29.541013717651367,-19.71435546875
0.841064453125,-0.215087890625,0.1741943359375,0.6713866591453552,44.555660247802734,-30.517576217651367
0.82568359375,-0.1934814453125,0.183349609375,1.9531248807907104,59.509273529052734,-45.898433685302734
0.8060302734375,-0.271240234375,0.0797119140625,1.4038084745407104,72.6318359375,-56.274410247802734
0.794921875,-0.2587890625,0.0679931640625,-0.3662109076976776,87.52440643310547,-69.7021484375
0.7845458984375,-0.325927734375,-0.0301513671875,4.2724609375,99.67040252685547,-77.94189453125
0.7388916015625,-0.389404296875,-0.119384765625,2.13623046875,104.91942596435547,-86.60887908935547
0.69189453125,-0.4620361328125,-0.137939453125,9.21630859375,112.67089080810547,-93.38378143310547
0.6463623046875,-0.474365234375,-0.2261962890625,-3.967284917831421,119.50682830810547,-101.13524627685547
0.5535888671875,-0.6004638671875,-0.3951416015625,-5.187987804412842,120.72753143310547,-102.96630096435547
0.4896240234375,-0.6385498046875,-0.4078369140625,-5.798339366912842,123.77928924560547,-105.71288299560547
0.3927001953125,-0.67236328125,-0.50537109375,0.4882812201976776,120.54442596435547,-107.42186737060547
0.2984619140625,-0.7904052734375,-0.5941162109375,7.141112804412842,109.92430877685547,-104.79735565185547
0.2081298828125,-0.763916015625,-0.5650634765625,9.09423828125,112.12157440185547,-102.78319549560547
0.117431640625,-0.869873046875,-0.6806640625,7.202147960662842,104.24803924560547,-94.29930877685547
0.0439453125,-0.7967529296875,-0.57177734375,3.112792730331421,101.98973846435547,-95.45897674560547
-0.0469970703125,-0.885986328125,-0.678955078125,1.4038084745407104,96.43553924560547,-93.01757049560547
-0.1300048828125,-0.82568359375,-0.6209716796875,12.329100608825684,92.34618377685547,-93.50585174560547
-0.171142578125,-0.83837890625,-0.67578125,15.563963890075684,88.86717987060547,-90.08788299560547
-0.2633056640625,-0.8330078125,-0.643798828125,4.21142578125,88.56200408935547,-89.53856658935547
-0.3258056640625,-0.8111572265625,-0.6580810546875,7.507323741912842,80.44432830810547,-83.92333221435547
-0.4334716796875,-0.770751953125,-0.5660400390625,-11.230467796325684,81.90917205810547,-83.31298065185547
-0.472412109375,-0.807373046875,-0.6639404296875,-6.713866710662842,75.439453125,-76.66015625
-0.5460205078125,-0.708984375,-0.5296630859375,-15.136717796325684,72.81494140625,-76.59912109375
-0.6065673828125,-0.772216796875,-0.5975341796875,-4.5166015625,70.61767578125,-72.44873046875
-0.6441650390625,-0.7349853515625,-0.49560546875,-10.437010765075684,63.415523529052734,-69.2138671875
-0.6683349609375,-0.725341796875,-0.515625,-6.225585460662842,62.011714935302734,-62.866207122802734
-0.7120361328125,-0.709228515625,-0.43994140625,-12.573241233825684,54.992671966552734,-57.983394622802734
-0.7283935546875,-0.667236328125,-0.4495849609375,-7.080077648162842,53.955074310302734,-54.016109466552734
-0.7672119140625,-0.6549072265625,-0.389404296875,-8.30078125,47.790523529052734,-48.767086029052734
-0.7930908203125,-0.619140625,-0.3624267578125,-4.57763671875,45.715328216552734,-42.663570404052734
-0.8095703125,-0.60107421875,-0.350830078125,-9.27734375,39.61181640625,-38.2080078125
-0.826171875,-0.5355224609375,-0.3519287109375,-11.230467796325684,33.63037109375,-31.982419967651367
-0.8359375,-0.5419921875,-0.297119140625,-16.7236328125,28.747556686401367,-25.024412155151367
-0.8436279296875,-0.54833984375,-0.263671875,-16.17431640625,23.498533248901367,-19.83642578125
-0.8551025390625,-0.525390625,-0.239013671875,-7.751464366912842,19.1650390625,-16.17431640625
-0.854248046875,-0.519287109375,-0.25,1.5258787870407104,14.465331077575684,-10.681151390075684
-0.8531494140625,-0.52783203125,-0.2452392578125,7.568358898162842,11.413573265075684,-7.324218273162842
-0.85107421875,-0.5252685546875,-0.2420654296875,9.82666015625,9.3994140625,-4.08935546875
-0.8607177734375,-0.5177001953125,-0.2261962890625,5.371093273162842,5.859374523162842,-2.929687261581421
-0.8612060546875,-0.5030517578125,-0.2225341796875,4.0283203125,3.417968511581421,0.8544921278953552
-0.8466796875,-0.5067138671875,-0.2305908203125,-0.9765624403953552,0.54931640625,0.9155272841453552
-0.847900390625,-0.4814453125,-0.211181640625,-3.356933355331421,-0.4882812201976776,1.7700194120407104
-0.853759765625,-0.495849609375,-0.2215576171875,-3.112792730331421,-0.9155272841453552,1.15966796875
-0.859130859375,-0.481689453125,-0.2010498046875,-2.50244140625,-2.38037109375,0.6103515625
-0.8560791015625,-0.4794921875,-0.19775390625,2.807616949081421,-2.990722417831421,1.5869139432907104
-0.856201171875,-0.4742431640625,-0.199462890625,2.685546636581421,-4.150390625,2.38037109375
-0.8642578125,-0.470703125,-0.1773681640625,0.4272460639476776,-4.39453125,2.44140625
-0.860107421875,-0.47900390625,-0.1865234375,-2.38037109375,-4.5166015625,0.9155272841453552
-0.8572998046875,-0.4598388671875,-0.180419921875,-2.685546636581421,-3.356933355331421,0.2441406100988388
-0.857177734375,-0.466796875,-0.176025390625,-3.723144292831421,-2.25830078125,-1.5258787870407104
-0.8681640625,-0.4666748046875,-0.177490234375,-0.7324218153953552,-0.6713866591453552,-1.5869139432907104
-0.868408203125,-0.4659423828125,-0.17431640625,-1.4648436307907104,0.3662109076976776,-2.868652105331421
-0.864013671875,-0.469482421875,-0.1785888671875,-0.30517578125,1.15966796875,-2.13623046875
-0.8619384765625,-0.4736328125,-0.18408203125,-1.5258787870407104,1.7700194120407104,-2.44140625
-0.8616943359375,-0.4769287109375,-0.1829833984375,-0.2441406100988388,2.746581792831421,-2.3193359375
-0.8597412109375,-0.468994140625,-0.19384765625,1.4038084745407104,3.112792730331421,-2.13623046875
-0.8599853515625,-0.4849853515625,-0.1812744140625,0.4272460639476776,3.356933355331421,-2.13623046875
-0.85400390625,-0.4903564453125,-0.181640625,0.3662109076976776,3.662109136581421,-1.220703125
-0.8612060546875,-0.4815673828125,-0.190673828125,0.0610351525247097,3.173827886581421,-0.1831054538488388
-0.8692626953125,-0.4697265625,-0.1947021484375,1.03759765625,2.50244140625,0.30517578125
-0.8668212890625,-0.4676513671875,-0.190673828125,2.3193359375,2.0751953125,-0.0610351525247097
-0.8577880859375,-0.466552734375,-0.1885986328125,1.7089842557907104,1.4038084745407104,-0.9155272841453552
-0.8609619140625,-0.475830078125,-0.1910400390625,-0.4272460639476776,1.7089842557907104,-1.0986328125
-0.8724365234375,-0.472900390625,-0.184814453125,-2.01416015625,1.5258787870407104,-2.624511480331421
-0.86279296875,-0.4710693359375,-0.1865234375,-0.8544921278953552,1.3427733182907104,-1.9531248807907104
-0.8582763671875,-0.4730224609375,-0.1845703125,1.3427733182907104,0.7324218153953552,-1.03759765625
-0.861328125,-0.47802734375,-0.18701171875,2.868652105331421,0.6713866591453552,-0.7324218153953552
-0.8651123046875,-0.4827880859375,-0.185791015625,1.220703125,0.30517578125,-0.4882812201976776
-0.8668212890625,-0.4822998046875,-0.18603515625,0.4272460639476776,-0.0610351525247097,-0.7934569716453552
-0.858642578125,-0.4840087890625,-0.1812744140625,0.0610351525247097,-0.1831054538488388,-0.54931640625
-0.8553466796875,-0.4864501953125,-0.18701171875,-0.1220703050494194,-0.1831054538488388,0.0
-0.859619140625,-0.4735107421875,-0.182373046875,-0.7934569716453552,-0.1831054538488388,0.1220703050494194
-0.8665771484375,-0.4691162109375,-0.183837890625,-2.3193359375,-0.7934569716453552,0.54931640625
-0.8712158203125,-0.4637451171875,-0.1842041015625,-0.6103515625,-0.9155272841453552,0.6713866591453552
-0.8680419921875,-0.4627685546875,-0.1856689453125,0.4882812201976776,-0.6713866591453552,-0.4272460639476776
-0.86669921875,-0.4669189453125,-0.17822265625,0.6103515625,-0.7324218153953552,-1.2817381620407104
-0.995849609375,-0.97021484375,-0.684814453125,47.790523529052734,-101.62352752685547,114.01366424560547
-1.034912109375,-1.0111083984375,-0.8287353515625,49.682613372802734,-148.49853515625,151.55029296875
-1.0882568359375,-1.073974609375,-0.9527587890625,42.724605560302734,-203.61326599121094,187.31687927246094
-1.0439453125,-1.079833984375,-0.9393310546875,15.808104515075684,-244.56785583496094,212.89060974121094
-0.7984619140625,-1.0950927734375,-0.926025390625,-12.756346702575684,-269.53125,225.40281677246094
-0.5943603515625,-0.9122314453125,-0.7601318359375,-22.094724655151367,-275.45166015625,230.34666442871094
-0.3248291015625,-0.6895751953125,-0.556640625,-22.705076217651367,-276.2451171875,223.02244567871094
-0.121826171875,-0.5595703125,-0.4591064453125,-20.324705123901367,-261.962890625,205.99363708496094
-0.0736083984375,-0.3912353515625,-0.2557373046875,-26.794431686401367,-237.24363708496094,181.09129333496094
0.123291015625,-0.251708984375,-0.109375,-15.808104515075684,-199.27976989746094,157.28759765625
0.247802734375,-0.301025390625,-0.137451171875,-4.69970703125,-166.80906677246094,133.1787109375
0.42724609375,-0.2042236328125,0.044189453125,13.732909202575684,-136.474609375,103.94286346435547
0.66552734375,-0.1717529296875,0.3162841796875,22.399900436401367,-101.68456268310547,78.43017578125
0.8177490234375,-0.213623046875,0.2015380859375,21.545408248901367,-74.52392578125,60.607906341552734
0.893798828125,-0.12744140625,0.40869140625,2.13623046875,-50.109859466552734,40.588375091552734
0.87890625,-0.2354736328125,0.334228515625,-13.122557640075684,-20.385740280151367,25.451658248901367
0.873046875,-0.1695556640625,0.241943359375,-21.118162155151367,-5.0048828125,10.314940452575684
0.874267578125,-0.21630859375,0.18603515625,-12.145995140075684,1.8310545682907104,1.5258787870407104
0.879638671875,-0.243896484375,0.130126953125,0.30517578125,4.8828125,-4.638671875
0.919921875,-0.2476806640625,0.1212158203125,5.0048828125,4.82177734375,-6.347655773162842
0.94189453125,-0.25341796875,0.13671875,2.868652105331421,5.249022960662842,-5.310058116912842
0.971435546875,-0.2640380859375,0.15185546875,0.4882812201976776,5.126952648162842,-2.807616949081421
0.9796142578125,-0.2828369140625,0.15087890625,-0.6713866591453552,6.347655773162842,-2.3193359375
0.9661865234375,-0.290283203125,0.13134765625,-1.5258787870407104,4.8828125,-1.2817381620407104
0.9466552734375,-0.28173828125,0.129150390625,-0.7934569716453552,3.112792730331421,-0.4882812201976776
0.9224853515625,-0.254638671875,0.1610107421875,-1.9531248807907104,6.164550304412842,-1.9531248807907104
0.89404296875,-0.2335205078125,0.1732177734375,-3.417968511581421,14.343260765075684,-5.493163585662842
0.880126953125,-0.2076416015625,0.185546875,-4.150390625,26.000974655151367,-12.634276390075684
0.85693359375,-0.1942138671875,0.17041015625,-3.295898199081421,40.832515716552734,-25.329587936401367
0.8345947265625,-0.203125,0.1551513671875,-3.051757574081421,50.720211029052734,-37.41455078125
0.81201171875,-0.23681640625,0.13720703125,-4.2724609375,69.091796875,-54.870601654052734
0.7808837890625,-0.3013916015625,0.0308837890625,-10.498045921325684,86.18163299560547,-68.359375
0.7542724609375,-0.332275390625,0.0040283203125,-18.85986328125,96.49657440185547,-82.70262908935547
0.699462890625,-0.3468017578125,-0.0125732421875,-13.183592796325684,110.41259002685547,-96.55760955810547
0.6358642578125,-0.4317626953125,-0.163330078125,-8.9111328125,120.11717987060547,-109.00878143310547
0.57861328125,-0.51806640625,-0.2515869140625,-1.15966796875,124.81688690185547,-120.60546112060547
0.4649658203125,-0.591064453125,-0.2906494140625,7.263183116912842,128.2958984375,-125.97655487060547
0.3634033203125,-0.6451416015625,-0.414794921875,8.1787109375,132.01904296875,-128.173828125
0.2646484375,-0.794921875,-0.55517578125,8.85009765625,124.87792205810547,-125.24413299560547
0.1754150390625,-0.7685546875,-0.48876953125,13.061522483825684,125.79344940185547,-123.35204315185547
0.1163330078125,-0.9423828125,-0.6939697265625,12.023924827575684,116.51610565185547,-110.96190643310547
0.0150146484375,-0.87744140625,-0.6165771484375,16.78466796875,116.02782440185547,-107.05565643310547
-0.033447265625,-0.9412841796875,-0.7432861328125,5.0048828125,99.54833221435547,-99.54833221435547
-0.1419677734375,-0.8724365234375,-0.625,9.82666015625,97.35106658935547,-96.19139862060547
-0.205078125,-0.919921875,-0.731689453125,2.50244140625,89.23339080810547,-89.66063690185547
-0.289306640625,-0.80810546875,-0.5787353515625,-6.591796398162842,83.43505096435547,-87.40233612060547
-0.32470703125,-0.8822021484375,-0.617431640625,-4.39453125,81.66503143310547,-84.04540252685547
-0.424560546875,-0.8170166015625,-0.6446533203125,-7.446288585662842,73.91357421875,-82.94676971435547
-0.4952392578125,-0.7783203125,-0.5062255859375,-1.7700194120407104,72.81494140625,-79.2236328125
-0.549560546875,-0.794189453125,-0.5592041015625,-3.906249761581421,72.1435546875,-73.05908203125
-0.5848388671875,-0.7723388671875,-0.5731201171875,-2.25830078125,61.767574310302734,-68.17626953125
-0.6375732421875,-0.7286376953125,-0.4351806640625,-13.427733421325684,62.133785247802734,-66.7724609375
-0.6693115234375,-0.75732421875,-0.5308837890625,-9.765625,56.274410247802734,-60.363765716552734
-0.70654296875,-0.675048828125,-0.3787841796875,-18.06640625,51.696773529052734,-57.434078216552734
-0.7469482421875,-0.6990966796875,-0.4027099609375,-12.756346702575684,48.339839935302734,-51.574703216552734
-0.767578125,-0.671875,-0.345947265625,-12.939452171325684,42.236324310302734,-44.006343841552734
-0.778564453125,-0.6163330078125,-0.328857421875,-10.498045921325684,38.75732421875,-41.992183685302734
-0.817138671875,-0.598876953125,-0.2891845703125,-13.549803733825684,29.357908248901367,-28.686521530151367
-0.824951171875,-0.5972900390625,-0.286376953125,-16.29638671875,21.972654342651367,-23.193357467651367
-0.835693359375,-0.5552978515625,-0.2451171875,-9.46044921875,15.380858421325684,-16.54052734375
-0.8416748046875,-0.5555419921875,-0.214111328125,-7.812499523162842,13.793944358825684,-13.916014671325684
-0.833251953125,-0.570556640625,-0.2139892578125,-3.784179449081421,12.268065452575684,-11.413573265075684
-0.8326416015625,-0.5594482421875,-0.221435546875,3.662109136581421,12.268065452575684,-8.72802734375
-0.828369140625,-0.552734375,-0.217041015625,4.5166015625,10.986327171325684,-6.652831554412842
-0.8353271484375,-0.5357666015625,-0.215576171875,6.713866710662842,8.48388671875,-2.807616949081421
-0.84619140625,-0.5350341796875,-0.198486328125,6.286620616912842,5.981444835662842,-0.7324218153953552
-0.8543701171875,-0.5206298828125,-0.2132568359375,5.676269054412842,4.5166015625,-0.0610351525247097
-0.849365234375,-0.521728515625,-0.2021484375,3.417968511581421,3.295898199081421,0.4272460639476776
-0.860595703125,-0.520263671875,-0.1961669921875,2.01416015625,3.051757574081421,0.6103515625
-0.8612060546875,-0.5074462890625,-0.1900634765625,1.5258787870407104,1.6479490995407104,1.03759765625
-0.84228515625,-0.498291015625,-0.1820068359375,2.25830078125,0.6103515625,2.25830078125
-0.8348388671875,-0.5067138671875,-0.169921875,-1.8310545682907104,-0.2441406100988388,1.220703125
-0.829833984375,-0.5081787109375,-0.17138671875,0.6713866591453552,0.1831054538488388,1.5869139432907104
-0.8306884765625,-0.5213623046875,-0.169677734375,-1.220703125,0.7324218153953552,0.6103515625
-0.84033203125,-0.494140625,-0.165283203125,-2.01416015625,0.6713866591453552,-0.2441406100988388
-0.8443603515625,-0.48779296875,-0.1778564453125,-0.6103515625,1.03759765625,0.6713866591453552
-0.8541259765625,-0.4876708984375,-0.1744384765625,-1.5869139432907104,0.4272460639476776,0.0610351525247097
-0.8482666015625,-0.478759765625,-0.15625,0.3662109076976776,0.1220703050494194,0.1220703050494194
-0.852783203125,-0.4952392578125,-0.174560546875,-0.30517578125,-0.0610351525247097,-1.3427733182907104
-0.8631591796875,-0.4931640625,-0.165283203125,-0.7934569716453552,0.54931640625,-3.784179449081421
-0.8485107421875,-0.509033203125,-0.1591796875,-2.868652105331421,1.0986328125,-4.7607421875
-0.842529296875,-0.5052490234375,-0.1566162109375,-0.8544921278953552,1.03759765625,-3.540038824081421
-0.8497314453125,-0.51708984375,-0.1639404296875,-1.03759765625,0.9155272841453552,-2.50244140625
-0.854736328125,-0.519287109375,-0.1551513671875,-0.8544921278953552,0.9155272841453552,-1.8920897245407104
-0.8590087890625,-0.527099609375,-0.1617431640625,-0.4882812201976776,0.3662109076976776,-1.03759765625
-0.852294921875,-0.529052734375,-0.1571044921875,-1.03759765625,0.3662109076976776,-0.2441406100988388
-0.8453369140625,-0.5302734375,-0.1553955078125,-2.197265625,0.8544921278953552,0.3662109076976776
-0.840087890625,-0.5238037109375,-0.152587890625,-3.479003667831421,0.7934569716453552,0.8544921278953552
-0.839599609375,-0.503662109375,-0.1671142578125,-2.624511480331421,0.4272460639476776,2.38037109375
-0.853271484375,-0.49755859375,-0.1646728515625,-1.7700194120407104,0.1831054538488388,3.112792730331421
-0.8582763671875,-0.490234375,-0.1676025390625,-0.1220703050494194,-0.1831054538488388,2.25830078125
-0.85107421875,-0.4910888671875,-0.166748046875,-1.220703125,-0.7934569716453552,0.4882812201976776
-0.8446044921875,-0.491943359375,-0.1630859375,0.4882812201976776,-0.3662109076976776,-0.4882812201976776
-0.8399658203125,-0.5028076171875,-0.152587890625,0.4272460639476776,-0.30517578125,-1.3427733182907104
-0.841552734375,-0.50048828125,-0.1558837890625,0.4882812201976776,-0.4272460639476776,-1.6479490995407104
-0.85400390625,-0.5081787109375,-0.160400390625,-0.0610351525247097,0.1220703050494194,-1.9531248807907104
-0.8602294921875,-0.5042724609375,-0.1552734375,-1.03759765625,-0.1220703050494194,-2.624511480331421
-0.85400390625,-0.5015869140625,-0.1580810546875,-0.1220703050494194,-0.4272460639476776,-2.0751953125
-0.8494873046875,-0.5015869140625,-0.148681640625,1.2817381620407104,-0.7934569716453552,-1.4038084745407104
-1.0615234375,-0.904541015625,-0.568603515625,54.504390716552734,-110.53466033935547,124.57274627685547
-1.0693359375,-0.9945068359375,-0.8050537109375,62.133785247802734,-157.5927734375,169.73875427246094
-1.1513671875,-1.092041015625,-1.0303955078125,55.114742279052734,-216.67478942871094,205.56639099121094
-1.2044677734375,-1.06396484375,-1.0869140625,41.931148529052734,-255.67625427246094,228.33250427246094
-0.8995361328125,-0.9395751953125,-0.837158203125,1.4648436307907104,-286.62109375,237.60984802246094
-0.396484375,-0.886962890625,-0.8577880859375,-24.414060592651367,-291.32080078125,239.25779724121094
-0.28759765625,-0.5404052734375,-0.3436279296875,-36.07177734375,-286.31591796875,219.78758239746094
0.001708984375,-0.5224609375,-0.3828125,-40.222164154052734,-261.3525390625,200.43943786621094
0.0069580078125,-0.3692626953125,-0.20556640625,-27.954099655151367,-229.67527770996094,177.85643005371094
0.1715087890625,-0.2789306640625,-0.0760498046875,-8.544921875,-190.00242614746094,151.85546875
0.3243408203125,-0.22509765625,0.0318603515625,14.526366233825684,-162.10935974121094,128.2958984375
0.5579833984375,-0.22119140625,0.224853515625,27.709959030151367,-119.44579315185547,95.45897674560547
0.697265625,-0.2052001953125,0.2498779296875,14.648436546325684,-78.369140625,61.706539154052734
0.7979736328125,-0.20458984375,0.3482666015625,-8.85009765625,-40.832515716552734,31.311033248901367
0.849609375,-0.2474365234375,0.2095947265625,-23.132322311401367,-11.169432640075684,8.6669921875
0.86572265625,-0.2821044921875,0.0626220703125,-11.108397483825684,-0.7934569716453552,-2.44140625
0.8895263671875,-0.3546142578125,0.05712890625,2.197265625,1.5258787870407104,-3.356933355331421
0.9144287109375,-0.385498046875,-0.0323486328125,6.225585460662842,-0.7934569716453552,1.5258787870407104
0.9625244140625,-0.32763671875,0.09423828125,1.220703125,-3.356933355331421,3.784179449081421
0.9166259765625,-0.353759765625,0.07080078125,-2.3193359375,0.8544921278953552,3.051757574081421
0.906494140625,-0.2733154296875,0.1009521484375,-0.9155272841453552,2.0751953125,-2.624511480331421
0.8682861328125,-0.284423828125,0.115478515625,1.5258787870407104,11.596678733825684,-12.512206077575684
0.848388671875,-0.2767333984375,0.0762939453125,4.150390625,23.071287155151367,-22.705076217651367
0.8353271484375,-0.258544921875,0.111572265625,4.638671875,36.4990234375,-33.75244140625
0.8193359375,-0.29931640625,0.09814453125,3.723144292831421,53.039546966552734,-46.081539154052734
0.794189453125,-0.2935791015625,0.072509765625,-0.9765624403953552,68.78662109375,-59.753414154052734
0.7391357421875,-0.36572265625,0.0081787109375,-4.21142578125,84.47264862060547,-75.8056640625
0.6824951171875,-0.412109375,-0.03466796875,-9.70458984375,97.29003143310547,-90.88134002685547
0.5731201171875,-0.4539794921875,-0.0611572265625,-5.187987804412842,109.92430877685547,-106.99462127685547
0.5074462890625,-0.51904296875,-0.1715087890625,1.7089842557907104,115.78368377685547,-117.49266815185547
0.438720703125,-0.6668701171875,-0.30419921875,2.990722417831421,127.13622283935547,-122.74169158935547
0.341552734375,-0.7120361328125,-0.35205078125,4.39453125,133.23974609375,-121.58202362060547
0.261474609375,-0.8372802734375,-0.557373046875,-1.220703125,137.63427734375,-120.48339080810547
0.18408203125,-0.8739013671875,-0.5015869140625,-2.50244140625,126.40380096435547,-116.69921112060547
0.0875244140625,-0.862548828125,-0.521484375,4.33349609375,124.57274627685547,-114.37987518310547
0.0181884765625,-0.90234375,-0.6846923828125,7.019042491912842,111.26708221435547,-109.74120330810547
-0.0545654296875,-0.87158203125,-0.5401611328125,17.39501953125,108.58153533935547,-107.91014862060547
-0.14697265625,-0.94921875,-0.69921875,5.249022960662842,101.68456268310547,-102.05077362060547
-0.2398681640625,-0.8546142578125,-0.5682373046875,14.404295921325684,100.21971893310547,-99.79247283935547
-0.3251953125,-0.87353515625,-0.5794677734375,6.835937023162842,98.02245330810547,-96.61864471435547
-0.45068359375,-0.8016357421875,-0.6761474609375,13.305663108825684,88.07372283935547,-91.91893768310547
-0.5333251953125,-0.752685546875,-0.4305419921875,-0.8544921278953552,91.79686737060547,-89.90477752685547
-0.5982666015625,-0.8060302734375,-0.674560546875,-4.39453125,87.76854705810547,-82.94676971435547
-0.6866455078125,-0.6932373046875,-0.4251708984375,-18.00537109375,77.57568359375,-83.86229705810547
-0.721923828125,-0.7381591796875,-0.488525390625,-12.390135765075684,72.509765625,-78.61328125
-0.7659912109375,-0.6829833984375,-0.4197998046875,-12.268065452575684,62.561031341552734,-74.15771484375
-0.7821044921875,-0.6513671875,-0.32080078125,-13.183592796325684,59.631343841552734,-70.12939453125
-0.7913818359375,-0.697509765625,-0.3375244140625,-13.183592796325684,58.532711029052734,-63.842769622802734
-0.812744140625,-0.64306640625,-0.3277587890625,-19.34814453125,53.222652435302734,-62.866207122802734
-0.8623046875,-0.5888671875,-0.253173828125,-21.118162155151367,48.583980560302734,-56.030269622802734
-0.871337890625,-0.6141357421875,-0.2784423828125,-21.118162155151367,42.663570404052734,-45.593257904052734
-0.8828125,-0.575439453125,-0.2005615234375,-14.587401390075684,34.1796875,-38.02490234375
-0.901123046875,-0.562744140625,-0.2147216796875,-5.981444835662842,26.123044967651367,-26.855466842651367
-0.9010009765625,-0.5452880859375,-0.2064208984375,7.507323741912842,18.73779296875,-13.549803733825684
-0.8914794921875,-0.505859375,-0.1910400390625,15.075682640075684,13.427733421325684,-6.652831554412842
-0.8792724609375,-0.5123291015625,-0.177734375,15.136717796325684,9.1552734375,-2.990722417831421
-0.8558349609375,-0.5150146484375,-0.178466796875,13.427733421325684,6.774901866912842,-1.3427733182907104
-0.8658447265625,-0.4923095703125,-0.1558837890625,7.080077648162842,4.150390625,0.6103515625
-0.8743896484375,-0.49609375,-0.164794921875,3.479003667831421,3.417968511581421,3.112792730331421
-0.8726806640625,-0.4932861328125,-0.1549072265625,1.4648436307907104,1.3427733182907104,3.784179449081421
-0.8800048828125,-0.4759521484375,-0.14697265625,1.220703125,0.3662109076976776,4.150390625
-0.8697509765625,-0.4757080078125,-0.1409912109375,0.7324218153953552,0.30517578125,3.234863042831421
-0.86181640625,-0.463134765625,-0.143798828125,-0.0610351525247097,-0.30517578125,4.39453125
-0.8720703125,-0.452392578125,-0.1185302734375,-0.30517578125,-1.220703125,5.065917491912842
-0.886474609375,-0.437255859375,-0.1302490234375,2.44140625,-1.3427733182907104,4.94384765625
-0.8829345703125,-0.447021484375,-0.1217041015625,2.44140625,-1.2817381620407104,3.662109136581421
-0.8828125,-0.458251953125,-0.1162109375,0.54931640625,-0.4882812201976776,0.4882812201976776
-0.8779296875,-0.4674072265625,-0.124755859375,-2.13623046875,1.220703125,-1.6479490995407104
-0.8681640625,-0.457763671875,-0.1197509765625,-3.967284917831421,1.4648436307907104,-2.01416015625
-0.875244140625,-0.463134765625,-0.116943359375,-3.601073980331421,1.5869139432907104,-1.0986328125
-0.87646484375,-0.46337890625,-0.1181640625,-2.929687261581421,1.3427733182907104,-0.8544921278953552
-0.8824462890625,-0.4765625,-0.1217041015625,-3.173827886581421,1.4038084745407104,-0.9155272841453552
-0.8834228515625,-0.478759765625,-0.113037109375,-2.25830078125,1.6479490995407104,-1.5258787870407104
-0.8682861328125,-0.492919921875,-0.113525390625,-2.38037109375,1.5258787870407104,-1.9531248807907104
-0.85986328125,-0.4901123046875,-0.1099853515625,-3.112792730331421,0.7934569716453552,-1.5869139432907104
-0.8614501953125,-0.47265625,-0.110595703125,-4.82177734375,1.03759765625,-0.1220703050494194
-0.8797607421875,-0.46826171875,-0.11865234375,-3.112792730331421,0.8544921278953552,0.9765624403953552
-0.8887939453125,-0.4627685546875,-0.1116943359375,-1.7700194120407104,-0.3662109076976776,1.7089842557907104
-0.8839111328125,-0.46142578125,-0.1102294921875,0.6103515625,-1.5258787870407104,1.220703125
-0.8770751953125,-0.4677734375,-0.1104736328125,1.3427733182907104,-0.7934569716453552,0.0610351525247097
-0.8685302734375,-0.482177734375,-0.0992431640625,-1.7089842557907104,-0.4882812201976776,-0.7324218153953552
-0.8646240234375,-0.490234375,-0.1002197265625,-3.051757574081421,0.3662109076976776,-1.220703125
-0.871337890625,-0.4786376953125,-0.1031494140625,-2.44140625,1.3427733182907104,-1.5258787870407104
-0.874267578125,-0.469482421875,-0.107666015625,-2.50244140625,1.7089842557907104,-1.03759765625
-0.878662109375,-0.4761962890625,-0.1119384765625,0.1220703050494194,1.4648436307907104,-0.6713866591453552
-0.8824462890625,-0.4693603515625,-0.1082763671875,-0.6713866591453552,0.9155272841453552,-1.0986328125
-0.877197265625,-0.481689453125,-0.1103515625,-3.601073980331421,0.4272460639476776,-0.2441406100988388
-0.873779296875,-0.465576171875,-0.104248046875,-2.868652105331421,0.0610351525247097,0.2441406100988388
-0.876220703125,-0.4722900390625,-0.1109619140625,-0.54931640625,-0.3662109076976776,0.9155272841453552
-0.875244140625,-0.4686279296875,-0.102783203125,0.6713866591453552,-0.2441406100988388,0.9765624403953552
-0.875,-0.48388671875,-0.1004638671875,1.8310545682907104,0.1220703050494194,0.0
-0.87109375,-0.489990234375,-0.0994873046875,0.1220703050494194,0.4272460639476776,-0.30517578125
-0.873779296875,-0.4931640625,-0.1011962890625,-3.479003667831421,0.8544921278953552,-1.220703125
-0.8624267578125,-0.4830322265625,-0.1031494140625,-5.0048828125,0.8544921278953552,-0.6103515625
-0.8631591796875,-0.4659423828125,-0.101318359375,-4.150390625,0.4882812201976776,0.2441406100988388
-0.8814697265625,-0.4638671875,-0.10986328125,-2.624511480331421,-0.0610351525247097,0.7324218153953552
-0.8857421875,-0.4554443359375,-0.1075439453125,1.03759765625,-1.0986328125,0.8544921278953552
-0.875732421875,-0.4619140625,-0.1026611328125,1.4038084745407104,-1.6479490995407104,0.1831054538488388
-0.875244140625,-0.4730224609375,-0.0992431640625,-0.1831054538488388,-1.2817381620407104,-0.7934569716453552
-0.876953125,-0.47412109375,-0.09521484375,-2.50244140625,-0.54931640625,-1.9531248807907104
-1.0279541015625,-1.0133056640625,-0.653076171875,69.4580078125,-119.01854705810547,126.89208221435547
-1.1434326171875,-1.12158203125,-0.9267578125,51.879878997802734,-183.16648864746094,168.88426208496094
-1.160400390625,-1.1322021484375,-0.947509765625,16.845703125,-233.45945739746094,206.05467224121094
-0.945556640625,-1.1668701171875,-0.954833984375,-9.33837890625,-257.8125,224.30418395996094
-0.765380859375,-0.9534912109375,-0.799072265625,-28.625486373901367,-275.69580078125,231.56736755371094
-0.4849853515625,-0.73828125,-0.64013671875,-31.249998092651367,-276.0009765625,231.01805114746094
-0.2900390625,-0.537353515625,-0.4195556640625,-26.062009811401367,-259.27734375,216.43064880371094
-0.088134765625,-0.4815673828125,-0.33447265625,-33.3251953125,-228.45457458496094,195.67869567871094
0.0291748046875,-0.3157958984375,-0.166748046875,-28.747556686401367,-194.27488708496094,167.29734802246094
0.215087890625,-0.2921142578125,-0.072509765625,-4.2724609375,-160.64451599121094,137.39013671875
0.3582763671875,-0.3052978515625,0.001953125,4.82177734375,-123.22997283935547,104.06493377685547
0.566162109375,-0.2889404296875,0.146484375,15.441893577575684,-97.10692596435547,83.19091033935547
0.72412109375,-0.25146484375,0.207763671875,2.25830078125,-65.36865234375,53.039546966552734
0.8238525390625,-0.337646484375,0.184814453125,-8.60595703125,-38.26904296875,31.433103561401367
0.8623046875,-0.2943115234375,0.20166015625,-11.901854515075684,-16.29638671875,12.573241233825684
0.8741455078125,-0.33837890625,0.11962890625,-15.686034202575684,-0.9155272841453552,-2.746581792831421
0.8721923828125,-0.388671875,0.0062255859375,-6.652831554412842,3.845214605331421,-8.4228515625
0.885009765625,-0.3829345703125,0.0577392578125,-3.479003667831421,4.21142578125,-10.925292015075684
0.8765869140625,-0.427490234375,-0.009765625,-0.1220703050494194,4.94384765625,-9.8876953125
0.880859375,-0.3948974609375,0.0159912109375,-2.50244140625,6.408690929412842,-9.521484375
0.8592529296875,-0.3724365234375,0.0592041015625,-3.784179449081421,13.793944358825684,-14.831542015075684
0.83349609375,-0.3714599609375,0.0782470703125,-0.1220703050494194,20.324705123901367,-21.179197311401367
0.8184814453125,-0.356201171875,0.092041015625,8.056640625,31.921384811401367,-32.16552734375
0.78662109375,-0.383056640625,0.060546875,9.6435546875,45.776363372802734,-44.372554779052734
0.760009765625,-0.42822265625,0.0008544921875,7.446288585662842,56.945796966552734,-54.870601654052734
0.725341796875,-0.4368896484375,0.0264892578125,7.995604991912842,67.2607421875,-64.14794921875
0.6905517578125,-0.5318603515625,-0.1207275390625,6.103515148162842,80.44432830810547,-70.73974609375
0.6563720703125,-0.4632568359375,-0.0723876953125,9.46044921875,90.69823455810547,-80.38329315185547
0.5853271484375,-0.6300048828125,-0.19384765625,8.11767578125,101.07421112060547,-84.04540252685547
0.541015625,-0.6259765625,-0.2430419921875,9.1552734375,108.03221893310547,-87.09716033935547
0.4727783203125,-0.7047119140625,-0.3604736328125,4.638671875,112.73192596435547,-91.18651580810547
0.3741455078125,-0.7305908203125,-0.3658447265625,10.681151390075684,115.96678924560547,-93.44481658935547
0.2989501953125,-0.8026123046875,-0.517333984375,4.0283203125,114.56298065185547,-95.94725799560547
0.1839599609375,-0.7620849609375,-0.4949951171875,7.934569835662842,109.92430877685547,-99.30419158935547
0.0833740234375,-0.841552734375,-0.560302734375,2.990722417831421,108.58153533935547,-98.69384002685547
-0.0157470703125,-0.8089599609375,-0.602783203125,18.5546875,106.50634002685547,-97.71727752685547
-0.050048828125,-0.8624267578125,-0.617431640625,15.502928733825684,101.19628143310547,-95.27587127685547
-0.14794921875,-0.8214111328125,-0.6885986328125,27.160642623901367,96.67967987060547,-96.61864471435547
-0.2584228515625,-0.84130859375,-0.5220947265625,2.929687261581421,94.78759002685547,-96.55760955810547
-0.3155517578125,-0.8958740234375,-0.724853515625,13.610838890075684,89.53856658935547,-87.28026580810547
-0.3785400390625,-0.7923583984375,-0.53369140625,-7.263183116912842,83.06884002685547,-85.63231658935547
-0.436767578125,-0.813720703125,-0.5811767578125,6.591796398162842,88.43993377685547,-83.25194549560547
-0.5146484375,-0.863037109375,-0.619873046875,-9.1552734375,74.951171875,-76.59912109375
-0.5712890625,-0.7340087890625,-0.49560546875,-0.30517578125,76.84326171875,-70.1904296875
-0.610595703125,-0.7855224609375,-0.5157470703125,-19.4091796875,72.265625,-67.56591796875
-0.6668701171875,-0.767822265625,-0.5159912109375,-10.681151390075684,63.537593841552734,-62.072750091552734
-0.7274169921875,-0.6810302734375,-0.363525390625,-20.263669967651367,59.753414154052734,-60.302730560302734
-0.7374267578125,-0.712890625,-0.4942626953125,-6.958007335662842,51.147457122802734,-54.748531341552734
-0.7625732421875,-0.6378173828125,-0.3275146484375,-15.563963890075684,46.081539154052734,-50.415035247802734
-0.762451171875,-0.6219482421875,-0.340087890625,-11.169432640075684,47.485347747802734,-45.715328216552734
-0.779052734375,-0.6492919921875,-0.339111328125,-20.507810592651367,38.6962890625,-42.663570404052734
-0.8238525390625,-0.5543212890625,-0.253662109375,-10.742186546325684,37.41455078125,-39.0625
-0.828125,-0.59814453125,-0.289306640625,-13.916014671325684,33.5693359375,-34.60693359375
-0.8563232421875,-0.542236328125,-0.2044677734375,-9.09423828125,27.343748092651367,-30.456541061401367
-0.8643798828125,-0.5526123046875,-0.217041015625,-8.4228515625,23.437498092651367,-25.817869186401367
-0.8707275390625,-0.54541015625,-0.19677734375,-9.033203125,17.88330078125,-20.629880905151367
-0.864013671875,-0.5155029296875,-0.1654052734375,-3.845214605331421,15.380858421325684,-16.4794921875
-0.862060546875,-0.536376953125,-0.172607421875,-4.0283203125,13.183592796325684,-13.061522483825684
-0.865966796875,-0.5296630859375,-0.1695556640625,0.30517578125,8.72802734375,-8.6669921875
-0.86328125,-0.50927734375,-0.155029296875,1.220703125,7.141112804412842,-5.432128429412842
-0.85888671875,-0.5238037109375,-0.1673583984375,1.4038084745407104,4.8828125,-1.6479490995407104
-0.8687744140625,-0.4976806640625,-0.1536865234375,0.3662109076976776,1.7700194120407104,0.6713866591453552
-0.878173828125,-0.495361328125,-0.16162109375,0.9155272841453552,0.30517578125,2.685546636581421
-0.87841796875,-0.4927978515625,-0.1558837890625,-0.7934569716453552,-2.197265625,2.807616949081421
-0.87109375,-0.475341796875,-0.1429443359375,-1.5869139432907104,-3.479003667831421,4.5166015625
-0.86669921875,-0.481201171875,-0.146728515625,0.9765624403953552,-4.39453125,4.7607421875
-0.867431640625,-0.4764404296875,-0.135498046875,-0.0610351525247097,-5.310058116912842,4.45556640625
-0.865478515625,-0.496826171875,-0.132568359375,-2.563476324081421,-5.126952648162842,3.417968511581421
-0.8682861328125,-0.4927978515625,-0.1348876953125,-5.126952648162842,-4.638671875,2.38037109375
-0.858642578125,-0.4979248046875,-0.13134765625,-5.126952648162842,-3.723144292831421,2.38037109375
-0.8489990234375,-0.484375,-0.125,-8.36181640625,-3.784179449081421,1.8310545682907104
-0.858642578125,-0.480224609375,-0.1341552734375,-7.812499523162842,-3.540038824081421,2.44140625
-0.8790283203125,-0.4853515625,-0.15087890625,-8.6669921875,-4.0283203125,2.25830078125
-0.8839111328125,-0.484130859375,-0.1295166015625,-12.451170921325684,-5.371093273162842,0.6103515625
-0.867919921875,-0.4871826171875,-0.1307373046875,-14.221190452575684,-6.347655773162842,0.7324218153953552
-0.850830078125,-0.4918212890625,-0.1300048828125,-18.73779296875,-5.920409679412842,-0.0610351525247097
-0.852294921875,-0.48583984375,-0.1229248046875,-20.690916061401367,-4.33349609375,-1.220703125
-0.861083984375,-0.490234375,-0.1380615234375,-20.996091842651367,-3.662109136581421,-1.03759765625
-0.8582763671875,-0.48876953125,-0.1201171875,-20.01953125,-3.234863042831421,-3.356933355331421
-0.8642578125,-0.484375,-0.12158203125,-23.986814498901367,-3.845214605331421,-4.21142578125
-0.8861083984375,-0.4891357421875,-0.1337890625,-25.512693405151367,-3.662109136581421,-5.371093273162842
-0.8807373046875,-0.492919921875,-0.1329345703125,-25.146482467651367,-3.601073980331421,-6.713866710662842
-0.88037109375,-0.490966796875,-0.10693359375,-18.85986328125,-5.126952648162842,-6.286620616912842
-0.8690185546875,-0.4954833984375,-0.08349609375,-9.6435546875,-8.97216796875,-0.6713866591453552
-0.8385009765625,-0.5115966796875,-0.0767822265625,-2.3193359375,-9.58251953125,0.9765624403953552
-0.828369140625,-0.530029296875,-0.088623046875,-4.21142578125,-8.30078125,0.0610351525247097
-0.8377685546875,-0.5142822265625,-0.06640625,-9.6435546875,-7.751464366912842,-0.2441406100988388
-0.8392333984375,-0.5050048828125,-0.0599365234375,-10.131834983825684,-5.920409679412842,0.9765624403953552
-0.8531494140625,-0.508056640625,-0.07568359375,-5.920409679412842,-3.784179449081421,0.4272460639476776
-0.8583984375,-0.496826171875,-0.0897216796875,-9.33837890625,-0.4272460639476776,-2.868652105331421
-0.8702392578125,-0.505615234375,-0.0902099609375,-8.1787109375,3.234863042831421,-5.065917491912842
-0.8748779296875,-0.4932861328125,-0.1116943359375,-6.774901866912842,4.5166015625,-7.019042491912842
-0.880126953125,-0.4891357421875,-0.08154296875,-7.141112804412842,4.150390625,-6.469726085662842
-0.8843994140625,-0.4527587890625,-0.097412109375,0.6713866591453552,2.01416015625,-0.54931640625
-0.862060546875,-0.483154296875,-0.111083984375,-0.1220703050494194,0.3662109076976776,-1.5869139432907104
-0.869384765625,-0.492919921875,-0.0894775390625,-1.8310545682907104,1.2817381620407104,-2.746581792831421
-0.87109375,-0.4752197265625,-0.1082763671875,1.7700194120407104,2.44140625,-2.197265625
-0.85498046875,-0.4862060546875,-0.085693359375,2.0751953125,1.03759765625,-2.01416015625
-0.865234375,-0.484130859375,-0.09423828125,-3.906249761581421,0.54931640625,-2.38037109375
-0.8721923828125,-0.4947509765625,-0.0994873046875,-6.652831554412842,0.2441406100988388,-2.38037109375
-1.0574951171875,-1.0703125,-0.677001953125,73.91357421875,-114.99022674560547,145.99609375
-1.1685791015625,-1.1685791015625,-0.9224853515625,74.76806640625,-175.65916442871094,195.06834411621094
-1.147705078125,-1.19921875,-0.9737548828125,37.78076171875,-225.21971130371094,235.29051208496094
-0.981201171875,-1.243408203125,-1.0499267578125,15.930174827575684,-251.89207458496094,257.01904296875
-0.7012939453125,-0.8673095703125,-0.68798828125,-8.544921875,-283.203125,260.43701171875
-0.4105224609375,-0.832763671875,-0.8125,-7.995604991912842,-293.64013671875,252.07518005371094
-0.3472900390625,-0.4771728515625,-0.3192138671875,-18.85986328125,-285.64453125,230.16355895996094
-0.0380859375,-0.43896484375,-0.3240966796875,-25.756834030151367,-254.39451599121094,208.00779724121094
0.0045166015625,-0.396484375,-0.318359375,-20.263669967651367,-218.99412536621094,185.54685974121094
0.1422119140625,-0.1939697265625,0.0228271484375,-2.25830078125,-183.10545349121094,152.64892578125
0.33740234375,-0.2242431640625,0.07373046875,20.324705123901367,-144.47021484375,117.79784393310547
0.549560546875,-0.2232666015625,0.1971435546875,28.564451217651367,-116.82128143310547,91.61376190185547
0.685546875,-0.190185546875,0.314697265625,22.094724655151367,-81.90917205810547,59.143062591552734
0.821533203125,-0.206787109375,0.391357421875,-4.7607421875,-42.724605560302734,32.958984375
0.8646240234375,-0.23193359375,0.2891845703125,-11.352538108825684,-16.9677734375,13.793944358825684
0.874267578125,-0.2506103515625,0.2657470703125,-19.59228515625,-2.38037109375,2.01416015625
0.8779296875,-0.3060302734375,0.1378173828125,-13.488768577575684,8.48388671875,-4.0283203125
0.8929443359375,-0.2686767578125,0.1549072265625,-10.803221702575684,8.60595703125,-7.995604991912842
0.8804931640625,-0.273193359375,0.1444091796875,-6.652831554412842,14.526366233825684,-11.718749046325684
0.8779296875,-0.236572265625,0.138916015625,0.3662109076976776,19.47021484375,-17.88330078125
0.8599853515625,-0.2391357421875,0.2044677734375,6.530761241912842,32.1044921875,-27.404783248901367
0.840576171875,-0.2425537109375,0.19970703125,7.751464366912842,48.461910247802734,-38.6962890625
0.787109375,-0.299072265625,0.1181640625,-0.9765624403953552,65.673828125,-52.978511810302734
0.724609375,-0.2662353515625,0.1353759765625,-6.469726085662842,86.91405487060547,-69.64111328125
0.65283203125,-0.336181640625,0.038330078125,-10.375975608825684,107.66600799560547,-88.19579315185547
0.6363525390625,-0.34765625,-0.0096435546875,0.1220703050494194,123.65721893310547,-105.34667205810547
0.557373046875,-0.4822998046875,-0.1380615234375,3.906249761581421,134.8876953125,-119.32372283935547
0.5057373046875,-0.4935302734375,-0.19384765625,9.21630859375,143.37158203125,-131.8359375
0.4149169921875,-0.6741943359375,-0.339111328125,6.042479991912842,150.146484375,-137.63427734375
0.3292236328125,-0.7281494140625,-0.4349365234375,7.812499523162842,151.06201171875,-141.357421875
0.2017822265625,-0.899169921875,-0.5894775390625,-10.742186546325684,145.751953125,-135.7421875
0.062255859375,-0.869873046875,-0.5743408203125,9.8876953125,131.89697265625,-128.35693359375
-0.0255126953125,-0.91064453125,-0.6719970703125,-6.591796398162842,127.56346893310547,-123.41307830810547
-0.14501953125,-0.9879150390625,-0.646484375,4.638671875,111.57225799560547,-112.12157440185547
-0.209228515625,-0.9041748046875,-0.6243896484375,-11.962889671325684,108.58153533935547,-113.22020721435547
-0.3048095703125,-0.9259033203125,-0.6251220703125,-15.624999046325684,92.16307830810547,-109.37499237060547
-0.3927001953125,-0.83740234375,-0.498779296875,-20.141599655151367,95.45897674560547,-111.14501190185547
-0.4996337890625,-0.8912353515625,-0.646240234375,-6.408690929412842,80.99364471435547,-104.00389862060547
-0.5863037109375,-0.7373046875,-0.3824462890625,-2.807616949081421,81.78710174560547,-104.12596893310547
-0.6500244140625,-0.865966796875,-0.58154296875,10.986327171325684,77.2705078125,-93.87206268310547
-0.684814453125,-0.7449951171875,-0.455810546875,-5.249022960662842,72.8759765625,-86.91405487060547
-0.7266845703125,-0.768310546875,-0.431396484375,4.08935546875,70.37353515625,-81.29882049560547
-0.7421875,-0.7613525390625,-0.4229736328125,-8.48388671875,61.035152435302734,-73.974609375
-0.7816162109375,-0.6983642578125,-0.356689453125,-3.967284917831421,53.894039154052734,-64.88037109375
-0.81982421875,-0.682373046875,-0.326904296875,-8.4228515625,48.767086029052734,-54.748531341552734
-0.821044921875,-0.6507568359375,-0.2890625,-8.48388671875,44.372554779052734,-48.095699310302734
-0.830078125,-0.65234375,-0.266357421875,-20.629880905151367,37.53662109375,-42.602535247802734
-0.8580322265625,-0.537841796875,-0.220947265625,-21.545408248901367,34.72900390625,-35.7666015625
-0.860595703125,-0.5611572265625,-0.2362060546875,-25.207517623901367,26.672361373901367,-28.198240280151367
-0.8709716796875,-0.5169677734375,-0.185791015625,-9.94873046875,18.1884765625,-20.446775436401367
-0.8690185546875,-0.507568359375,-0.1751708984375,1.4648436307907104,15.197752952575684,-16.7236328125
-0.8826904296875,-0.4815673828125,-0.173583984375,5.371093273162842,11.901854515075684,-15.747069358825684
-0.871826171875,-0.4931640625,-0.1802978515625,11.291502952575684,9.6435546875,-12.939452171325684
-0.87060546875,-0.5052490234375,-0.1512451171875,12.573241233825684,7.263183116912842,-8.6669921875
-0.866943359375,-0.5179443359375,-0.1484375,6.958007335662842,4.7607421875,-7.080077648162842
-0.881591796875,-0.5079345703125,-0.13671875,2.0751953125,1.03759765625,-3.417968511581421
-0.8824462890625,-0.5072021484375,-0.1380615234375,0.54931640625,-1.0986328125,-0.6713866591453552
-0.8836669921875,-0.4854736328125,-0.1207275390625,-3.967284917831421,-2.0751953125,1.15966796875
-0.8798828125,-0.47607421875,-0.1378173828125,-0.4272460639476776,-2.38037109375,3.845214605331421
-0.89013671875,-0.47607421875,-0.1175537109375,-4.69970703125,-2.929687261581421,4.08935546875
-0.8968505859375,-0.456787109375,-0.123291015625,0.7934569716453552,-2.563476324081421,5.249022960662842
-0.8848876953125,-0.4625244140625,-0.125732421875,-2.746581792831421,-3.601073980331421,5.493163585662842
-0.8797607421875,-0.44677734375,-0.1077880859375,-1.2817381620407104,-3.051757574081421,5.493163585662842
-0.8729248046875,-0.4776611328125,-0.1268310546875,-2.746581792831421,-2.44140625,4.2724609375
-0.87841796875,-0.4576416015625,-0.115478515625,-3.906249761581421,-2.624511480331421,2.746581792831421
-0.868408203125,-0.449462890625,-0.119140625,-6.408690929412842,-1.8920897245407104,2.44140625
-0.872802734375,-0.457763671875,-0.1280517578125,-6.774901866912842,-1.6479490995407104,1.9531248807907104
-0.884033203125,-0.4404296875,-0.11865234375,-6.652831554412842,-1.9531248807907104,1.4038084745407104
-0.884033203125,-0.4556884765625,-0.1138916015625,-5.187987804412842,-2.01416015625,0.4882812201976776
-0.8782958984375,-0.4578857421875,-0.115966796875,-3.356933355331421,-1.5258787870407104,-0.8544921278953552
-0.87744140625,-0.4544677734375,-0.115234375,-1.7089842557907104,-0.7934569716453552,-1.5869139432907104
-0.870849609375,-0.47265625,-0.1051025390625,-3.295898199081421,-0.6103515625,-2.563476324081421
-0.8758544921875,-0.474609375,-0.1048583984375,-3.662109136581421,-0.1220703050494194,-2.3193359375
-0.8758544921875,-0.484619140625,-0.10595703125,-1.3427733182907104,0.9765624403953552,-1.3427733182907104
-0.8740234375,-0.4794921875,-0.0992431640625,-3.295898199081421,1.4038084745407104,-0.9155272841453552
-0.8800048828125,-0.480712890625,-0.108154296875,-1.03759765625,1.5258787870407104,-0.7934569716453552
-0.87744140625,-0.479248046875,-0.1146240234375,-0.9765624403953552,1.9531248807907104,-0.4272460639476776
-0.87109375,-0.4730224609375,-0.1068115234375,-1.7089842557907104,2.0751953125,-0.2441406100988388
-0.8760986328125,-0.469482421875,-0.1107177734375,0.6713866591453552,1.6479490995407104,0.7324218153953552
-0.8759765625,-0.466796875,-0.1192626953125,1.03759765625,1.3427733182907104,0.9155272841453552
-0.877197265625,-0.479248046875,-0.1151123046875,0.0610351525247097,1.3427733182907104,1.15966796875
-0.879150390625,-0.480712890625,-0.1087646484375,-1.7089842557907104,1.15966796875,0.0610351525247097
-0.870361328125,-0.4852294921875,-0.1085205078125,-1.8310545682907104,0.4882812201976776,-0.6103515625
-0.8631591796875,-0.486328125,-0.1058349609375,-3.112792730331421,0.2441406100988388,-0.8544921278953552
-0.8624267578125,-0.4849853515625,-0.1072998046875,-2.624511480331421,0.54931640625,-0.4272460639476776
-0.871337890625,-0.474853515625,-0.10986328125,-1.5258787870407104,0.30517578125,0.30517578125
-0.879638671875,-0.4656982421875,-0.10595703125,-0.4272460639476776,-0.7324218153953552,1.15966796875
-0.8779296875,-0.466796875,-0.1104736328125,-0.54931640625,-1.2817381620407104,0.9765624403953552
-0.879150390625,-0.4674072265625,-0.10888671875,-0.9155272841453552,-0.9765624403953552,-0.1220703050494194
-0.8714599609375,-0.46630859375,-0.103271484375,-1.220703125,-1.03759765625,-1.03759765625
-0.8673095703125,-0.46630859375,-0.0968017578125,-2.38037109375,-0.7934569716453552,-1.5869139432907104
-0.8685302734375,-0.4693603515625,-0.1021728515625,-2.197265625,-0.1831054538488388,-1.8310545682907104
-0.8826904296875,-0.4739990234375,-0.101806640625,-0.6103515625,0.8544921278953552,-2.50244140625
-0.884033203125,-0.4744873046875,-0.0994873046875,0.0610351525247097,1.0986328125,-2.807616949081421
-0.8798828125,-0.4774169921875,-0.1014404296875,0.9155272841453552,0.8544921278953552,-2.0751953125
-0.8758544921875,-0.4783935546875,-0.100830078125,0.9765624403953552,0.9155272841453552,-1.6479490995407104
-0.8780517578125,-0.478271484375,-0.09912109375,0.6713866591453552,0.8544921278953552,-1.15966796875
-0.87744140625,-0.4801025390625,-0.100341796875,0.7324218153953552,0.54931640625,-1.0986328125
-0.8736572265625,-0.4906005859375,-0.0999755859375,0.2441406100988388,0.8544921278953552,-1.2817381620407104
-0.8695068359375,-0.4801025390625,-0.0955810546875,-0.1831054538488388,1.03759765625,-1.0986328125
-0.959716796875,-1.1240234375,-0.70849609375,52.368160247802734,-96.06932830810547,134.6435546875
-1.1895751953125,-1.14404296875,-0.798095703125,66.89453125,-153.50341796875,191.46726989746094
-1.1806640625,-1.21142578125,-0.9066162109375,49.011226654052734,-209.22850036621094,239.31883239746094
-0.990966796875,-1.267333984375,-1.0096435546875,12.084959983825684,-249.87791442871094,262.20703125
-0.7540283203125,-0.890380859375,-0.6146240234375,-9.6435546875,-269.59228515625,261.53564453125
-0.302978515625,-0.806884765625,-0.723388671875,-20.751951217651367,-273.8037109375,252.13621520996094
-0.370849609375,-0.691162109375,-0.4974365234375,-28.137205123901367,-267.15087890625,230.28562927246094
-0.1824951171875,-0.4144287109375,-0.251953125,-27.160642623901367,-234.80223083496094,212.76853942871094
0.0706787109375,-0.343994140625,-0.257568359375,-9.94873046875,-203.91844177246094,187.01170349121094
0.1112060546875,-0.36572265625,-0.160888671875,6.652831554412842,-177.18504333496094,160.46142578125
0.308349609375,-0.169677734375,0.177490234375,34.48486328125,-139.70947265625,127.62450408935547
0.521728515625,-0.33740234375,-0.005126953125,30.273435592651367,-112.48778533935547,94.05516815185547
0.715087890625,-0.174072265625,0.38916015625,26.428220748901367,-79.1015625,66.162109375
0.83642578125,-0.28564453125,0.263916015625,7.873534679412842,-49.133296966552734,42.663570404052734
0.8807373046875,-0.248046875,0.34814453125,-6.530761241912842,-30.639646530151367,26.611326217651367
0.8778076171875,-0.247802734375,0.3160400390625,-27.343748092651367,-0.9155272841453552,12.145995140075684
0.868408203125,-0.2735595703125,0.0701904296875,-22.094724655151367,5.432128429412842,6.530761241912842
0.92041015625,-0.2080078125,0.1624755859375,-11.413573265075684,7.690429210662842,-1.5258787870407104
0.88525390625,-0.2537841796875,0.1058349609375,1.3427733182907104,11.718749046325684,-9.09423828125
0.855224609375,-0.2227783203125,0.162109375,10.681151390075684,19.287109375,-21.118162155151367
0.839111328125,-0.267333984375,0.1788330078125,8.85009765625,33.203125,-33.3251953125
0.8236083984375,-0.2894287109375,0.1641845703125,4.0283203125,48.217769622802734,-45.532222747802734
0.8109130859375,-0.2767333984375,0.1461181640625,-5.371093273162842,60.119625091552734,-56.030269622802734
0.778564453125,-0.316162109375,0.10498046875,-9.33837890625,77.20947265625,-71.47216796875
0.748779296875,-0.3858642578125,0.0313720703125,-16.7236328125,91.67479705810547,-85.87645721435547
0.7275390625,-0.39208984375,-0.0057373046875,-13.977049827575684,99.48729705810547,-91.55272674560547
0.663818359375,-0.469482421875,-0.0712890625,-8.23974609375,109.19188690185547,-101.98973846435547
0.5810546875,-0.513671875,-0.16650390625,2.0751953125,112.73192596435547,-113.83055877685547
0.48876953125,-0.5914306640625,-0.193359375,12.512206077575684,124.02342987060547,-120.42235565185547
0.408203125,-0.62890625,-0.39306640625,6.591796398162842,122.55858612060547,-128.23486328125
0.239013671875,-0.76953125,-0.3167724609375,6.774901866912842,128.23486328125,-130.9814453125
0.176025390625,-0.8519287109375,-0.656982421875,12.268065452575684,128.35693359375,-127.38036346435547
0.0225830078125,-0.776123046875,-0.392578125,0.9765624403953552,119.99510955810547,-125.79344940185547
-0.0064697265625,-0.915771484375,-0.72314453125,24.780271530151367,117.30956268310547,-121.15477752685547
-0.1328125,-0.926025390625,-0.610107421875,14.526366233825684,103.75975799560547,-118.46923065185547
-0.1697998046875,-0.857666015625,-0.541259765625,35.64453125,103.82079315185547,-111.38915252685547
-0.251708984375,-0.9481201171875,-0.6773681640625,9.765625,98.75487518310547,-104.55321502685547
-0.32666015625,-0.910888671875,-0.647705078125,21.362302780151367,89.72167205810547,-93.13964080810547
-0.37353515625,-0.8699951171875,-0.557861328125,-1.7700194120407104,89.66063690185547,-88.07372283935547
-0.466064453125,-0.8778076171875,-0.643310546875,3.173827886581421,79.89501953125,-79.65087890625
-0.5286865234375,-0.7825927734375,-0.505615234375,-4.33349609375,81.17675018310547,-73.8525390625
-0.58837890625,-0.8045654296875,-0.600341796875,11.657713890075684,73.18115234375,-66.0400390625
-0.6309814453125,-0.7454833984375,-0.4677734375,11.169432640075684,64.697265625,-61.035152435302734
-0.661865234375,-0.7584228515625,-0.518310546875,14.587401390075684,61.035152435302734,-54.870601654052734
-0.700439453125,-0.71630859375,-0.4593505859375,0.7324218153953552,55.114742279052734,-50.598140716552734
-0.7198486328125,-0.686767578125,-0.4296875,-7.019042491912842,53.039546966552734,-45.349117279052734
-0.742431640625,-0.6669921875,-0.4022216796875,-16.29638671875,46.936031341552734,-42.785640716552734
-0.7734375,-0.625,-0.37255859375,-18.00537109375,42.114253997802734,-37.2314453125
-0.7833251953125,-0.6268310546875,-0.317138671875,-23.864744186401367,37.17041015625,-32.71484375
-0.7877197265625,-0.601806640625,-0.2918701171875,-24.780271530151367,32.89794921875,-30.517576217651367
-0.8134765625,-0.579345703125,-0.299560546875,-36.2548828125,29.907224655151367,-27.893064498901367
-0.8350830078125,-0.571533203125,-0.230224609375,-41.015621185302734,24.536130905151367,-25.146482467651367
-0.833984375,-0.5504150390625,-0.194580078125,-32.77587890625,20.446775436401367,-21.972654342651367
-0.8389892578125,-0.5526123046875,-0.195556640625,-22.827146530151367,15.380858421325684,-19.6533203125
-0.8397216796875,-0.5137939453125,-0.2064208984375,-2.746581792831421,12.145995140075684,-15.136717796325684
-0.841796875,-0.540283203125,-0.20166015625,7.263183116912842,11.718749046325684,-12.268065452575684
-0.8533935546875,-0.5386962890625,-0.174072265625,9.765625,11.291502952575684,-11.596678733825684
-0.8470458984375,-0.5526123046875,-0.1710205078125,9.3994140625,11.047362327575684,-10.192870140075684
-0.843994140625,-0.533203125,-0.1802978515625,6.958007335662842,9.46044921875,-8.23974609375
-0.844482421875,-0.528076171875,-0.162841796875,2.868652105331421,6.774901866912842,-5.432128429412842
-0.8603515625,-0.5269775390625,-0.16357421875,2.44140625,5.249022960662842,-3.295898199081421
-0.863525390625,-0.5323486328125,-0.177734375,2.50244140625,3.356933355331421,-1.8310545682907104
-0.8634033203125,-0.510986328125,-0.140869140625,-2.0751953125,0.7934569716453552,-1.2817381620407104
-0.851318359375,-0.518310546875,-0.1529541015625,2.25830078125,-0.1831054538488388,1.2817381620407104
-0.846923828125,-0.5133056640625,-0.1468505859375,-0.2441406100988388,-1.8310545682907104,1.3427733182907104
-0.8548583984375,-0.4949951171875,-0.140869140625,-0.7934569716453552,-2.746581792831421,2.868652105331421
-0.8656005859375,-0.482177734375,-0.1497802734375,0.6103515625,-3.356933355331421,3.845214605331421
-0.86669921875,-0.484130859375,-0.1400146484375,0.1831054538488388,-4.08935546875,2.929687261581421
-0.8673095703125,-0.4853515625,-0.13330078125,0.6103515625,-3.906249761581421,2.0751953125
-0.86474609375,-0.4864501953125,-0.143310546875,0.2441406100988388,-3.051757574081421,0.4272460639476776
-0.8551025390625,-0.493408203125,-0.1256103515625,-2.197265625,-2.44140625,0.1831054538488388
-0.8621826171875,-0.4881591796875,-0.1220703125,-2.807616949081421,-2.0751953125,-0.54931640625
-0.865234375,-0.49951171875,-0.1380615234375,-4.57763671875,-2.197265625,-0.1220703050494194
-0.864013671875,-0.490966796875,-0.123779296875,-3.173827886581421,-1.4038084745407104,-0.2441406100988388
-0.8626708984375,-0.5018310546875,-0.131591796875,-3.356933355331421,-0.7324218153953552,-0.4882812201976776
-0.8507080078125,-0.5125732421875,-0.1336669921875,-0.6103515625,-0.3662109076976776,-0.30517578125
-0.8436279296875,-0.5157470703125,-0.11962890625,-3.784179449081421,0.4882812201976776,-1.3427733182907104
-0.8453369140625,-0.5145263671875,-0.12890625,-3.479003667831421,1.5869139432907104,-0.9155272841453552
-0.8580322265625,-0.498779296875,-0.1383056640625,-1.4648436307907104,1.7089842557907104,0.2441406100988388
-0.869140625,-0.4989013671875,-0.1361083984375,0.1831054538488388,1.2817381620407104,0.8544921278953552
-0.864990234375,-0.4947509765625,-0.138671875,3.723144292831421,0.8544921278953552,1.220703125
-0.85400390625,-0.491943359375,-0.140380859375,2.563476324081421,0.3662109076976776,0.9765624403953552
-0.853515625,-0.5015869140625,-0.1326904296875,-0.30517578125,0.7324218153953552,0.0
-0.8570556640625,-0.496826171875,-0.1339111328125,-0.9765624403953552,0.9765624403953552,-1.03759765625
-0.8548583984375,-0.5040283203125,-0.135009765625,-1.3427733182907104,1.15966796875,-1.2817381620407104
-0.8529052734375,-0.497314453125,-0.13232421875,-0.0610351525247097,1.2817381620407104,-1.2817381620407104
-0.8572998046875,-0.50341796875,-0.1348876953125,0.7324218153953552,1.220703125,-1.15966796875
-0.861328125,-0.5057373046875,-0.13525390625,0.9765624403953552,0.9765624403953552,-0.4272460639476776
-0.8580322265625,-0.509521484375,-0.1341552734375,0.1220703050494194,0.54931640625,-0.6713866591453552
-0.8507080078125,-0.5084228515625,-0.1312255859375,-0.30517578125,0.1220703050494194,-0.7934569716453552
-0.8472900390625,-0.513916015625,-0.12744140625,-2.01416015625,0.1220703050494194,-0.8544921278953552
-0.8492431640625,-0.5150146484375,-0.1326904296875,-1.8310545682907104,0.4272460639476776,-0.4882812201976776
-0.8521728515625,-0.50146484375,-0.131591796875,-2.50244140625,0.54931640625,0.4882812201976776
-0.8612060546875,-0.4981689453125,-0.12939453125,-1.220703125,0.30517578125,0.54931640625
-0.8604736328125,-0.4947509765625,-0.1429443359375,0.7324218153953552,-0.0610351525247097,0.1831054538488388
-0.8583984375,-0.49658203125,-0.1331787109375,1.7700194120407104,-0.1220703050494194,-0.30517578125
-0.8548583984375,-0.4952392578125,-0.1290283203125,0.7934569716453552,-0.6103515625,-0.7934569716453552
-0.8538818359375,-0.508544921875,-0.12646484375,0.0610351525247097,-0.6713866591453552,-0.9765624403953552
-0.8546142578125,-0.503173828125,-0.12939453125,-2.13623046875,-0.7324218153953552,-1.15966796875
-0.857421875,-0.501953125,-0.1282958984375,-1.8920897245407104,-0.1831054538488388,-1.0986328125
