aX,aY,aZ,gX,gY,gZ
-2.1485595703125,-0.08837890625,-0.3514404296875,-42.297359466552734,-39.9169921875,55.419918060302734
-2.6416015625,0.1085205078125,-0.218505859375,-33.75244140625,-55.236812591552734,157.40966796875
-2.0296630859375,-0.60693359375,-0.4495849609375,-10.559081077575684,-55.297847747802734,183.22752380371094
-1.18310546875,-0.599609375,-0.267333984375,7.934569835662842,-45.471187591552734,153.38134765625
-0.370361328125,-0.5838623046875,-0.0975341796875,15.319823265075684,-28.076169967651367,116.39403533935547
-0.0946044921875,-0.5111083984375,-0.127685546875,16.6015625,-6.835937023162842,61.706539154052734
-0.023193359375,-0.417724609375,-0.07275390625,10.986327171325684,14.648436546325684,15.136717796325684
0.07373046875,-0.33349609375,-0.01611328125,11.962889671325684,24.902341842651367,-9.09423828125
-0.0504150390625,-0.4161376953125,-0.0770263671875,14.099120140075684,23.620603561401367,-14.160155296325684
-0.2789306640625,-0.4068603515625,0.050537109375,31.066892623901367,36.7431640625,-12.817381858825684
-0.3388671875,-0.5621337890625,-0.35009765625,17.2119140625,34.3017578125,-0.1831054538488388
-0.5001220703125,-0.4720458984375,0.03955078125,3.295898199081421,22.583005905151367,1.7700194120407104
-0.5611572265625,-0.608154296875,-0.0772705078125,23.315427780151367,20.080564498901367,14.404295921325684
-0.6612548828125,-0.6171875,-0.161376953125,2.563476324081421,5.371093273162842,13.916014671325684
-0.7720947265625,-0.63720703125,-0.2076416015625,7.019042491912842,6.286620616912842,13.549803733825684
-0.7718505859375,-0.6451416015625,-0.17578125,-11.169432640075684,4.638671875,13.366698265075684
-0.7314453125,-0.5994873046875,-0.1513671875,-3.540038824081421,4.08935546875,6.042479991912842
-0.726318359375,-0.6383056640625,-0.159423828125,1.5258787870407104,0.6103515625,-0.30517578125
-0.6773681640625,-0.59375,-0.1109619140625,11.535643577575684,-3.845214605331421,-3.173827886581421
-0.6995849609375,-0.653564453125,-0.224609375,4.0283203125,-2.38037109375,-6.225585460662842
-0.7164306640625,-0.5970458984375,-0.175048828125,-0.7324218153953552,-2.50244140625,-5.737304210662842
-0.708251953125,-0.6121826171875,-0.143310546875,-0.30517578125,4.2724609375,-5.187987804412842
-0.6575927734375,-0.5919189453125,-0.1826171875,-4.82177734375,0.9765624403953552,-2.38037109375
-0.6383056640625,-0.6199951171875,-0.1263427734375,-9.1552734375,-1.3427733182907104,-0.9765624403953552
-0.615234375,-0.5985107421875,-0.1488037109375,-8.4228515625,-5.432128429412842,-1.15966796875
-0.63037109375,-0.630859375,-0.125,-11.352538108825684,-8.1787109375,-0.1831054538488388
-0.6051025390625,-0.6102294921875,-0.173095703125,-18.5546875,-12.512206077575684,0.7324218153953552
-0.617431640625,-0.538818359375,-0.0728759765625,-15.686034202575684,-10.803221702575684,-2.38037109375
-0.5504150390625,-0.6165771484375,-0.2432861328125,-16.90673828125,-17.578125,-3.601073980331421
-0.6517333984375,-0.5435791015625,-0.0283203125,-21.972654342651367,-14.343260765075684,-14.282225608825684
-0.5751953125,-0.6513671875,-0.2464599609375,-15.014647483825684,-17.578125,-17.333984375
-0.72998046875,-0.560302734375,-0.0731201171875,-17.578125,-8.60595703125,-27.343748092651367
-0.5592041015625,-0.6771240234375,-0.3089599609375,-14.221190452575684,-16.2353515625,-26.245115280151367
-0.7943115234375,-0.5048828125,0.0093994140625,-14.709471702575684,-8.48388671875,-33.26416015625
-0.57568359375,-0.6661376953125,-0.36962890625,-10.314940452575684,-7.446288585662842,-31.860349655151367
-0.8780517578125,-0.5601806640625,-0.06298828125,-17.578125,-2.563476324081421,-39.4287109375
-0.753662109375,-0.6890869140625,-0.2945556640625,-0.8544921278953552,4.8828125,-36.43798828125
-0.91943359375,-0.5660400390625,-0.0885009765625,-15.380858421325684,0.4882812201976776,-42.114253997802734
-0.865478515625,-0.5399169921875,-0.1942138671875,-3.540038824081421,7.995604991912842,-44.189449310302734
-0.945068359375,-0.5919189453125,-0.1346435546875,-22.094724655151367,1.6479490995407104,-35.5224609375
-1.0621337890625,-0.438232421875,-0.1087646484375,-5.187987804412842,8.7890625,-38.6962890625
-0.8863525390625,-0.445556640625,-0.183837890625,-9.58251953125,8.36181640625,-39.24560546875
-1.2205810546875,-0.4219970703125,-0.19091796875,0.9765624403953552,15.197752952575684,-43.457027435302734
-1.0606689453125,-0.3489990234375,-0.1986083984375,8.30078125,10.375975608825684,-33.5693359375
-0.9764404296875,-0.3148193359375,-0.0859375,12.573241233825684,8.7890625,-31.311033248901367
-1.01708984375,-0.3433837890625,-0.0985107421875,14.038084983825684,9.82666015625,-34.24072265625
-1.0767822265625,-0.3450927734375,-0.1900634765625,22.033689498901367,14.404295921325684,-35.400390625
-1.0296630859375,-0.266845703125,-0.064208984375,8.056640625,9.765625,-19.47021484375
-1.01904296875,-0.2711181640625,-0.1361083984375,21.240232467651367,8.11767578125,-17.88330078125
-1.0296630859375,-0.277587890625,-0.1231689453125,22.705076217651367,5.371093273162842,-13.732909202575684
-1.0037841796875,-0.2474365234375,-0.0704345703125,19.6533203125,3.479003667831421,-9.521484375
-0.990966796875,-0.2667236328125,-0.1141357421875,18.37158203125,3.295898199081421,-3.479003667831421
-0.9697265625,-0.26708984375,-0.1143798828125,8.7890625,1.6479490995407104,-2.685546636581421
-0.9705810546875,-0.2451171875,-0.0731201171875,2.01416015625,0.8544921278953552,-1.7089842557907104
-0.9820556640625,-0.251220703125,-0.1131591796875,0.4882812201976776,2.50244140625,-1.6479490995407104
-0.9664306640625,-0.2535400390625,-0.1171875,-2.746581792831421,0.9155272841453552,-1.4038084745407104
-0.9951171875,-0.2301025390625,-0.0804443359375,-7.202147960662842,-0.0610351525247097,-1.03759765625
-1.00244140625,-0.2442626953125,-0.1141357421875,0.2441406100988388,-0.54931640625,0.0
-0.988037109375,-0.259033203125,-0.110595703125,-2.624511480331421,-1.03759765625,-3.540038824081421
-0.992919921875,-0.2440185546875,-0.0772705078125,-2.197265625,-0.6103515625,-4.69970703125
-0.978759765625,-0.2437744140625,-0.1246337890625,4.21142578125,-0.0610351525247097,-1.03759765625
-0.9708251953125,-0.252685546875,-0.0897216796875,-1.5258787870407104,-1.8310545682907104,-1.15966796875
-0.9752197265625,-0.236572265625,-0.082275390625,1.7700194120407104,-1.4038084745407104,-0.54931640625
-0.968505859375,-0.2689208984375,-0.1221923828125,0.0,-1.8310545682907104,-0.7324218153953552
-0.97021484375,-0.2498779296875,-0.09228515625,-3.540038824081421,-1.8310545682907104,-2.44140625
-0.962890625,-0.2518310546875,-0.0933837890625,-2.746581792831421,-1.2817381620407104,-3.051757574081421
-0.9503173828125,-0.2596435546875,-0.0987548828125,-4.39453125,-2.13623046875,-3.234863042831421
-0.951904296875,-0.2437744140625,-0.094970703125,-5.065917491912842,-2.13623046875,-2.01416015625
-0.95556640625,-0.244140625,-0.1046142578125,-3.906249761581421,-0.9765624403953552,-0.7934569716453552
-0.9678955078125,-0.253173828125,-0.1014404296875,-2.01416015625,-0.4272460639476776,0.0610351525247097
-0.96826171875,-0.2431640625,-0.09130859375,0.7934569716453552,-0.1220703050494194,0.2441406100988388
-0.9697265625,-0.251953125,-0.1119384765625,4.150390625,0.0610351525247097,-0.4272460639476776
-0.9693603515625,-0.2503662109375,-0.1053466796875,4.08935546875,-0.0610351525247097,-1.5258787870407104
-0.9656982421875,-0.24560546875,-0.0872802734375,2.868652105331421,0.4272460639476776,-1.5869139432907104
-0.9619140625,-0.255126953125,-0.1138916015625,4.39453125,0.54931640625,-0.0610351525247097
-0.966552734375,-0.2510986328125,-0.095947265625,1.15966796875,-0.2441406100988388,-0.4272460639476776
-0.9654541015625,-0.2501220703125,-0.0955810546875,1.8920897245407104,0.30517578125,-0.1831054538488388
-0.9666748046875,-0.2557373046875,-0.1092529296875,0.7324218153953552,-0.2441406100988388,-0.30517578125
-0.9647216796875,-0.244384765625,-0.0946044921875,0.4272460639476776,0.0610351525247097,-0.7934569716453552
-0.960693359375,-0.2550048828125,-0.10107421875,0.3662109076976776,0.2441406100988388,-0.7324218153953552
-0.9599609375,-0.2489013671875,-0.1014404296875,-1.0986328125,0.0,-0.6103515625
-0.9599609375,-0.245849609375,-0.0999755859375,0.1831054538488388,0.4272460639476776,-0.8544921278953552
-0.9659423828125,-0.2508544921875,-0.1051025390625,0.0610351525247097,0.7934569716453552,-0.8544921278953552
-0.9664306640625,-0.2457275390625,-0.09912109375,0.0,0.4882812201976776,-0.6103515625
-0.966796875,-0.248046875,-0.104736328125,1.15966796875,0.4882812201976776,-0.2441406100988388
-0.9630126953125,-0.247314453125,-0.095703125,-0.4272460639476776,0.3662109076976776,-0.0610351525247097
-0.961669921875,-0.249267578125,-0.1021728515625,-1.0986328125,0.2441406100988388,0.3662109076976776
-0.9654541015625,-0.2392578125,-0.0999755859375,-0.7324218153953552,0.4882812201976776,0.0610351525247097
-0.962890625,-0.2506103515625,-0.0992431640625,-0.54931640625,0.4272460639476776,-0.4272460639476776
-0.95849609375,-0.2425537109375,-0.100830078125,-0.8544921278953552,0.4272460639476776,-0.9765624403953552
-0.9703369140625,-0.2459716796875,-0.100830078125,0.4272460639476776,0.3662109076976776,-0.4882812201976776
-0.9708251953125,-0.2412109375,-0.1083984375,1.6479490995407104,0.54931640625,0.2441406100988388
-0.96826171875,-0.2501220703125,-0.0977783203125,1.5869139432907104,0.4272460639476776,-0.1831054538488388
-0.964599609375,-0.2457275390625,-0.0992431640625,1.9531248807907104,-0.1220703050494194,-0.1831054538488388
-0.9622802734375,-0.2457275390625,-0.10205078125,2.25830078125,-0.30517578125,0.0
-0.9566650390625,-0.251708984375,-0.0985107421875,0.2441406100988388,-0.2441406100988388,-0.4272460639476776
-0.9605712890625,-0.24169921875,-0.0987548828125,-0.0610351525247097,-0.1831054538488388,-0.54931640625
-0.964111328125,-0.251708984375,-0.1019287109375,-0.30517578125,-0.54931640625,-0.4882812201976776
-0.9678955078125,-0.243896484375,-0.1002197265625,-0.54931640625,-0.6713866591453552,-0.6103515625
-2.42236328125,-0.1365966796875,-0.2811279296875,-22.399900436401367,-62.072750091552734,159.5458984375
-1.9293212890625,-0.6766357421875,-0.46728515625,-34.72900390625,-67.87109375,166.01560974121094
-1.0921630859375,-0.6236572265625,-0.134765625,-11.901854515075684,-50.781246185302734,145.32470703125
-0.4727783203125,-0.7811279296875,-0.2740478515625,11.291502952575684,-23.559568405151367,107.05565643310547
-0.1783447265625,-0.558837890625,-0.181884765625,6.103515148162842,-9.46044921875,64.697265625
-0.0711669921875,-0.4674072265625,-0.0380859375,9.82666015625,17.08984375,25.024412155151367
-0.01318359375,-0.4403076171875,-0.2388916015625,13.488768577575684,31.677244186401367,-0.4272460639476776
0.0509033203125,-0.33203125,0.09912109375,10.681151390075684,33.50830078125,10.437010765075684
-0.0616455078125,-0.4302978515625,-0.12060546875,35.0341796875,43.029781341552734,-16.05224609375
-0.2294921875,-0.487548828125,-0.0958251953125,12.939452171325684,33.99658203125,-10.131834983825684
-0.3909912109375,-0.485595703125,-0.003662109375,13.183592796325684,30.029294967651367,-2.990722417831421
-0.5147705078125,-0.5869140625,-0.0859375,-1.03759765625,16.90673828125,0.0
-0.5718994140625,-0.6016845703125,-0.0919189453125,5.432128429412842,8.36181640625,3.051757574081421
-0.6668701171875,-0.72998046875,-0.1715087890625,-14.099120140075684,2.563476324081421,2.685546636581421
-0.728515625,-0.6529541015625,-0.125244140625,-5.432128429412842,2.13623046875,-0.0610351525247097
-0.7303466796875,-0.6639404296875,-0.1968994140625,-10.986327171325684,1.5258787870407104,0.54931640625
-0.728759765625,-0.6806640625,-0.1539306640625,-7.385253429412842,2.0751953125,-2.685546636581421
-0.7452392578125,-0.7119140625,-0.155029296875,4.8828125,3.845214605331421,-3.479003667831421
-0.742919921875,-0.679443359375,-0.175537109375,-8.11767578125,2.929687261581421,-4.69970703125
-0.7486572265625,-0.6524658203125,-0.1468505859375,-2.197265625,4.21142578125,-5.493163585662842
-0.7340087890625,-0.677734375,-0.1563720703125,-11.474608421325684,2.807616949081421,-4.82177734375
-0.7216796875,-0.6761474609375,-0.1513671875,-0.9765624403953552,5.737304210662842,-3.479003667831421
-0.76513671875,-0.6722412109375,-0.145263671875,-7.751464366912842,3.845214605331421,-2.685546636581421
-0.7308349609375,-0.65869140625,-0.1259765625,2.685546636581421,6.713866710662842,-3.234863042831421
-0.7283935546875,-0.667236328125,-0.1275634765625,-2.25830078125,5.676269054412842,-3.601073980331421
-0.6573486328125,-0.64208984375,-0.1146240234375,-0.7934569716453552,5.432128429412842,-2.990722417831421
-0.621826171875,-0.598876953125,-0.1019287109375,-2.685546636581421,4.7607421875,-3.906249761581421
-0.5894775390625,-0.578369140625,-0.0911865234375,-3.601073980331421,1.4648436307907104,-2.807616949081421
-0.5626220703125,-0.5430908203125,-0.072265625,-5.615233898162842,-3.417968511581421,-3.112792730331421
-0.5064697265625,-0.51806640625,-0.0777587890625,0.1831054538488388,-8.4228515625,-3.479003667831421
-0.5369873046875,-0.5555419921875,-0.05810546875,-5.371093273162842,-10.009765625,-7.141112804412842
-0.4766845703125,-0.5499267578125,-0.140380859375,-10.009765625,-16.78466796875,-13.793944358825684
-0.6571044921875,-0.58154296875,0.004150390625,-1.0986328125,-16.2353515625,-15.930174827575684
-0.4979248046875,-0.5491943359375,-0.2550048828125,-9.033203125,-25.817869186401367,-27.038572311401367
-0.7335205078125,-0.665771484375,-0.0604248046875,-1.7089842557907104,-14.526366233825684,-25.878904342651367
-0.644775390625,-0.6239013671875,-0.2818603515625,-5.249022960662842,-19.8974609375,-28.320310592651367
-0.7982177734375,-0.6898193359375,-0.15234375,-7.507323741912842,-8.4228515625,-35.09521484375
-0.7227783203125,-0.6181640625,-0.2744140625,10.986327171325684,-10.986327171325684,-27.465818405151367
-0.9677734375,-0.6563720703125,-0.1351318359375,-23.010251998901367,1.0986328125,-30.151365280151367
-0.7421875,-0.5723876953125,-0.31591796875,18.4326171875,0.7324218153953552,-25.207517623901367
-1.057861328125,-0.5802001953125,-0.0877685546875,-23.986814498901367,10.253905296325684,-37.78076171875
-0.81201171875,-0.556884765625,-0.29150390625,19.287109375,12.817381858825684,-38.87939453125
-1.0059814453125,-0.6103515625,-0.1016845703125,-18.37158203125,5.798339366912842,-33.99658203125
-0.987060546875,-0.4337158203125,-0.124267578125,-5.676269054412842,17.08984375,-40.832515716552734
-0.9459228515625,-0.5848388671875,-0.1541748046875,-7.934569835662842,16.357421875,-36.19384765625
-1.074462890625,-0.401123046875,-0.1685791015625,-19.47021484375,15.380858421325684,-35.82763671875
-0.9495849609375,-0.4063720703125,-0.065673828125,-17.333984375,10.864256858825684,-31.555173873901367
-1.069091796875,-0.337158203125,-0.07861328125,-13.183592796325684,11.352538108825684,-36.19384765625
-1.015869140625,-0.3665771484375,-0.169189453125,-2.01416015625,11.535643577575684,-35.0341796875
-1.053466796875,-0.34375,-0.0936279296875,-15.686034202575684,9.033203125,-36.4990234375
-1.050048828125,-0.2598876953125,-0.1099853515625,-0.30517578125,12.084959983825684,-28.076169967651367
-0.9951171875,-0.2882080078125,-0.102783203125,4.39453125,9.09423828125,-24.353025436401367
-0.9735107421875,-0.271240234375,-0.0631103515625,13.305663108825684,6.225585460662842,-22.644041061401367
-1.023681640625,-0.2559814453125,-0.10400390625,22.888181686401367,8.23974609375,-21.606443405151367
-0.988525390625,-0.2845458984375,-0.118408203125,27.343748092651367,7.141112804412842,-18.12744140625
-0.9605712890625,-0.2452392578125,-0.05615234375,20.935056686401367,4.21142578125,-15.136717796325684
-0.9935302734375,-0.239501953125,-0.048828125,27.648923873901367,5.554198741912842,-13.366698265075684
-0.98193359375,-0.276611328125,-0.1058349609375,25.390623092651367,2.3193359375,-12.268065452575684
-0.996826171875,-0.23193359375,-0.043212890625,13.305663108825684,0.0,-10.437010765075684
-0.9818115234375,-0.2264404296875,-0.0753173828125,15.075682640075684,-0.3662109076976776,-6.958007335662842
-0.9720458984375,-0.2537841796875,-0.0682373046875,1.4038084745407104,-2.50244140625,-6.286620616912842
-0.979736328125,-0.19091796875,-0.0594482421875,0.0,-1.3427733182907104,-5.126952648162842
-0.977783203125,-0.2413330078125,-0.092041015625,1.8310545682907104,-0.9765624403953552,-3.112792730331421
-1.0037841796875,-0.223388671875,-0.064208984375,-3.967284917831421,-2.0751953125,-5.187987804412842
-0.9959716796875,-0.18701171875,-0.0684814453125,7.995604991912842,-0.8544921278953552,-3.784179449081421
-0.9979248046875,-0.2357177734375,-0.081787109375,5.798339366912842,-2.746581792831421,-2.685546636581421
-0.9959716796875,-0.1793212890625,-0.0455322265625,7.019042491912842,-3.295898199081421,-1.220703125
-0.9964599609375,-0.2156982421875,-0.0902099609375,11.413573265075684,-3.295898199081421,-0.1220703050494194
-0.9892578125,-0.217529296875,-0.07275390625,4.5166015625,-4.08935546875,-1.5258787870407104
-1.001220703125,-0.2166748046875,-0.07861328125,2.13623046875,-2.563476324081421,-0.7324218153953552
-0.986083984375,-0.227294921875,-0.09130859375,0.9155272841453552,-2.868652105331421,-0.8544921278953552
-0.986328125,-0.212646484375,-0.075439453125,-2.807616949081421,-3.173827886581421,0.7934569716453552
-0.9903564453125,-0.20458984375,-0.0924072265625,-0.0610351525247097,-1.8920897245407104,2.13623046875
-0.9725341796875,-0.22216796875,-0.098388671875,1.5258787870407104,-1.8310545682907104,2.13623046875
-0.9610595703125,-0.211669921875,-0.0775146484375,1.3427733182907104,-1.9531248807907104,1.7700194120407104
-0.9683837890625,-0.2110595703125,-0.0960693359375,4.08935546875,-0.7934569716453552,1.9531248807907104
-0.9739990234375,-0.227783203125,-0.104736328125,2.13623046875,-1.4038084745407104,0.4882812201976776
-0.9696044921875,-0.203857421875,-0.082763671875,0.9155272841453552,-0.7934569716453552,0.30517578125
-0.9605712890625,-0.2183837890625,-0.109619140625,0.30517578125,-0.9155272841453552,0.0610351525247097
-0.9847412109375,-0.2138671875,-0.0946044921875,-1.9531248807907104,-1.6479490995407104,-1.220703125
-0.9749755859375,-0.2144775390625,-0.09326171875,-0.4272460639476776,-0.8544921278953552,-0.8544921278953552
-0.97314453125,-0.2159423828125,-0.098876953125,-4.2724609375,-0.7324218153953552,-1.15966796875
-0.982421875,-0.2071533203125,-0.096435546875,-0.9765624403953552,0.3662109076976776,-1.03759765625
-0.9818115234375,-0.2156982421875,-0.117919921875,3.234863042831421,1.15966796875,-0.8544921278953552
-0.97119140625,-0.2152099609375,-0.0938720703125,1.7089842557907104,0.4882812201976776,-1.8920897245407104
-0.96826171875,-0.1995849609375,-0.093017578125,1.6479490995407104,0.6713866591453552,-1.2817381620407104
-0.968994140625,-0.218505859375,-0.1153564453125,2.44140625,0.7934569716453552,-0.8544921278953552
-0.962890625,-0.212158203125,-0.09521484375,-0.6713866591453552,0.54931640625,-1.03759765625
-0.9716796875,-0.2093505859375,-0.1051025390625,0.2441406100988388,0.7934569716453552,-0.3662109076976776
-0.9681396484375,-0.2191162109375,-0.1124267578125,0.54931640625,-0.1220703050494194,-0.4882812201976776
-0.9725341796875,-0.2027587890625,-0.1005859375,1.6479490995407104,-0.1220703050494194,-0.7934569716453552
-0.9703369140625,-0.2186279296875,-0.111328125,2.01416015625,-0.4882812201976776,-0.6103515625
-0.972900390625,-0.2125244140625,-0.1055908203125,1.4648436307907104,-1.15966796875,-0.0610351525247097
-0.9791259765625,-0.215576171875,-0.102294921875,0.8544921278953552,-1.15966796875,-0.1220703050494194
-0.9775390625,-0.2093505859375,-0.10791015625,1.7700194120407104,-0.9765624403953552,0.30517578125
-0.968505859375,-0.2183837890625,-0.1063232421875,1.03759765625,-1.4038084745407104,0.0610351525247097
-0.9583740234375,-0.2052001953125,-0.094482421875,0.0,-2.01416015625,0.4272460639476776
-0.966552734375,-0.2220458984375,-0.1063232421875,0.1831054538488388,-1.2817381620407104,1.03759765625
-0.9691162109375,-0.219482421875,-0.10400390625,-0.9765624403953552,-1.2817381620407104,0.0610351525247097
-0.9766845703125,-0.2130126953125,-0.1025390625,-0.9765624403953552,-0.9765624403953552,-0.1831054538488388
-2.591552734375,0.1429443359375,-0.3289794921875,-47.729488372802734,-44.738765716552734,112.73192596435547
-2.5194091796875,-0.1324462890625,-0.2535400390625,19.47021484375,-56.884761810302734,183.83787536621094
-1.6824951171875,-0.7391357421875,-0.4659423828125,8.60595703125,-48.645015716552734,159.0576171875
-0.7645263671875,-0.6829833984375,-0.133544921875,8.1787109375,-34.0576171875,129.08935546875
-0.3275146484375,-0.7315673828125,-0.1619873046875,-2.990722417831421,-1.9531248807907104,79.16259765625
-0.0814208984375,-0.447998046875,-0.107666015625,-6.286620616912842,18.9208984375,15.991209983825684
0.0164794921875,-0.4251708984375,-0.052734375,-16.2353515625,28.442380905151367,-5.737304210662842
-0.0321044921875,-0.399658203125,-0.0596923828125,-0.9155272841453552,32.958984375,-34.423828125
-0.1297607421875,-0.388916015625,-0.0545654296875,6.591796398162842,37.17041015625,-32.470703125
-0.21826171875,-0.380615234375,-0.1385498046875,5.798339366912842,25.878904342651367,-23.742673873901367
-0.3170166015625,-0.403076171875,0.0396728515625,8.23974609375,19.04296875,-14.526366233825684
-0.4547119140625,-0.4796142578125,-0.1044921875,8.48388671875,12.634276390075684,-5.065917491912842
-0.56884765625,-0.469970703125,-0.064697265625,2.563476324081421,0.7934569716453552,4.638671875
-0.7110595703125,-0.572021484375,-0.061767578125,-1.4038084745407104,-4.08935546875,10.253905296325684
-0.8343505859375,-0.5826416015625,-0.1534423828125,-4.08935546875,-7.812499523162842,8.1787109375
-0.8890380859375,-0.59326171875,-0.1217041015625,-6.774901866912842,-5.371093273162842,2.197265625
-0.8524169921875,-0.5977783203125,-0.1514892578125,-1.4648436307907104,-1.03759765625,-0.6103515625
-0.8402099609375,-0.6080322265625,-0.15673828125,-1.7089842557907104,0.7934569716453552,-2.868652105331421
-0.8331298828125,-0.5792236328125,-0.1007080078125,4.57763671875,4.0283203125,-4.150390625
-0.7979736328125,-0.5921630859375,-0.1328125,3.234863042831421,9.94873046875,-4.2724609375
-0.7574462890625,-0.572509765625,-0.116943359375,2.44140625,11.962889671325684,-4.08935546875
-0.7303466796875,-0.5517578125,-0.0859375,0.1220703050494194,9.1552734375,-2.197265625
-0.716796875,-0.560302734375,-0.11767578125,-0.3662109076976776,7.751464366912842,-0.54931640625
-0.7298583984375,-0.5360107421875,-0.0849609375,-6.225585460662842,2.624511480331421,-0.1831054538488388
-0.75146484375,-0.5970458984375,-0.11572265625,-3.540038824081421,1.2817381620407104,1.2817381620407104
-0.72607421875,-0.5672607421875,-0.0703125,-2.25830078125,-3.234863042831421,4.0283203125
-0.55859375,-0.6031494140625,-0.0343017578125,0.7324218153953552,-10.070799827575684,0.9765624403953552
-0.510986328125,-0.4697265625,-0.01123046875,-12.329100608825684,-19.34814453125,2.38037109375
-0.487548828125,-0.445068359375,-0.019775390625,-10.375975608825684,-23.986814498901367,9.46044921875
-0.5264892578125,-0.451904296875,-0.1107177734375,-5.798339366912842,-26.550291061401367,13.488768577575684
-0.4964599609375,-0.5172119140625,-0.1578369140625,-26.062009811401367,-22.583005905151367,4.08935546875
-0.5863037109375,-0.4647216796875,-0.074462890625,1.8920897245407104,-23.498533248901367,-5.065917491912842
-0.59130859375,-0.558349609375,-0.17919921875,-3.723144292831421,-15.136717796325684,-20.01953125
-0.783203125,-0.5054931640625,-0.1505126953125,10.314940452575684,-10.620116233825684,-34.3017578125
-0.7281494140625,-0.6385498046875,-0.326416015625,-7.873534679412842,-4.5166015625,-39.4287109375
-0.9512939453125,-0.5223388671875,-0.0201416015625,19.775390625,0.0,-44.189449310302734
-0.992919921875,-0.6522216796875,-0.518310546875,-7.690429210662842,15.747069358825684,-52.368160247802734
-0.941162109375,-0.5712890625,-0.1304931640625,3.234863042831421,-4.08935546875,-48.767086029052734
-1.19091796875,-0.3563232421875,-0.0904541015625,2.01416015625,17.88330078125,-49.377437591552734
-0.85693359375,-0.6171875,-0.4443359375,6.713866710662842,14.038084983825684,-40.649410247802734
-1.347900390625,-0.4029541015625,-0.113525390625,-13.183592796325684,17.333984375,-46.813961029052734
-0.97509765625,-0.36962890625,-0.17822265625,4.5166015625,18.24951171875,-35.58349609375
-1.0269775390625,-0.42578125,-0.07373046875,-8.544921875,18.24951171875,-35.7666015625
-1.09912109375,-0.340087890625,-0.215576171875,3.173827886581421,17.578125,-29.907224655151367
-1.0030517578125,-0.306640625,-0.076416015625,-7.202147960662842,11.352538108825684,-29.296873092651367
-1.0137939453125,-0.2857666015625,-0.0498046875,1.6479490995407104,13.977049827575684,-25.634763717651367
-1.0234375,-0.2977294921875,-0.184814453125,10.192870140075684,15.441893577575684,-22.644041061401367
-0.9954833984375,-0.2666015625,-0.0885009765625,-2.868652105331421,11.474608421325684,-21.118162155151367
-0.9652099609375,-0.2435302734375,-0.0482177734375,-2.44140625,10.192870140075684,-16.11328125
-1.0296630859375,-0.2591552734375,-0.1429443359375,10.131834983825684,11.047362327575684,-15.869139671325684
-1.0191650390625,-0.2626953125,-0.04541015625,1.03759765625,5.371093273162842,-19.95849609375
-1.006591796875,-0.217529296875,-0.084716796875,5.554198741912842,4.5166015625,-7.080077648162842
-1.04638671875,-0.2283935546875,-0.0958251953125,2.38037109375,0.2441406100988388,-1.8920897245407104
-1.02490234375,-0.1851806640625,-0.06005859375,2.746581792831421,-1.220703125,6.042479991912842
-0.99365234375,-0.2138671875,-0.073974609375,4.5166015625,-1.7089842557907104,8.7890625
-0.9931640625,-0.2431640625,-0.06982421875,0.30517578125,-3.845214605331421,4.150390625
-1.015625,-0.21630859375,-0.07763671875,6.713866710662842,-1.5869139432907104,1.9531248807907104
-1.010009765625,-0.23486328125,-0.089599609375,6.469726085662842,-1.8920897245407104,-0.7324218153953552
-1.00732421875,-0.2374267578125,-0.0655517578125,2.807616949081421,-2.38037109375,-2.746581792831421
-0.99462890625,-0.2100830078125,-0.0673828125,6.652831554412842,-1.15966796875,-3.540038824081421
-0.9892578125,-0.2349853515625,-0.073486328125,7.995604991912842,-0.6713866591453552,-3.295898199081421
-0.98779296875,-0.22265625,-0.0618896484375,5.126952648162842,-1.2817381620407104,-3.051757574081421
-0.97802734375,-0.2366943359375,-0.0679931640625,4.8828125,-1.3427733182907104,-3.295898199081421
-0.97314453125,-0.2275390625,-0.0782470703125,2.38037109375,-2.197265625,-4.39453125
-0.9801025390625,-0.2374267578125,-0.064697265625,-0.4272460639476776,-2.13623046875,-3.723144292831421
-0.9625244140625,-0.22216796875,-0.070068359375,-0.4272460639476776,-1.7089842557907104,-2.44140625
-0.9573974609375,-0.2254638671875,-0.0828857421875,-3.112792730331421,-1.8310545682907104,-2.563476324081421
-0.9737548828125,-0.2269287109375,-0.0823974609375,-0.54931640625,-1.2817381620407104,-2.38037109375
-0.963623046875,-0.22509765625,-0.0850830078125,0.8544921278953552,-1.3427733182907104,-1.7089842557907104
-0.9644775390625,-0.2293701171875,-0.0731201171875,0.30517578125,-2.0751953125,-0.54931640625
-0.979736328125,-0.2264404296875,-0.0819091796875,3.601073980331421,-0.9765624403953552,-0.2441406100988388
-0.95947265625,-0.2236328125,-0.098876953125,3.234863042831421,-1.6479490995407104,-0.54931640625
-0.9580078125,-0.223388671875,-0.0711669921875,-0.30517578125,-2.624511480331421,-0.6103515625
-0.96435546875,-0.210693359375,-0.07568359375,1.9531248807907104,-2.624511480331421,0.4882812201976776
-0.9705810546875,-0.2320556640625,-0.0975341796875,1.8920897245407104,-2.38037109375,1.220703125
-0.9698486328125,-0.21923828125,-0.08154296875,-0.2441406100988388,-2.25830078125,1.03759765625
-0.9752197265625,-0.22607421875,-0.0882568359375,0.7934569716453552,-1.7700194120407104,0.7934569716453552
-0.9803466796875,-0.2296142578125,-0.09423828125,1.4038084745407104,-1.7089842557907104,-0.2441406100988388
-0.9775390625,-0.22509765625,-0.09033203125,0.8544921278953552,-1.7089842557907104,-0.54931640625
-0.9810791015625,-0.2205810546875,-0.09765625,0.9765624403953552,-1.4038084745407104,-0.1831054538488388
-0.9705810546875,-0.2225341796875,-0.0958251953125,1.03759765625,-1.5869139432907104,0.2441406100988388
-0.966064453125,-0.220947265625,-0.088623046875,-0.2441406100988388,-1.6479490995407104,-0.1220703050494194
-0.9580078125,-0.2205810546875,-0.0885009765625,0.0,-1.220703125,-0.4272460639476776
-0.9571533203125,-0.2264404296875,-0.108154296875,0.9765624403953552,-0.4882812201976776,-0.4272460639476776
-0.9732666015625,-0.226318359375,-0.0994873046875,-0.8544921278953552,0.4882812201976776,-1.8310545682907104
-0.98291015625,-0.21826171875,-0.101318359375,1.8310545682907104,1.4648436307907104,-2.44140625
-0.9739990234375,-0.2291259765625,-0.106689453125,1.7089842557907104,1.03759765625,-2.3193359375
-0.9803466796875,-0.2186279296875,-0.1015625,2.624511480331421,1.0986328125,-2.13623046875
-0.975830078125,-0.2283935546875,-0.1104736328125,4.150390625,1.15966796875,-1.5869139432907104
-0.97607421875,-0.2178955078125,-0.1015625,1.8310545682907104,1.5869139432907104,-1.5258787870407104
-0.9696044921875,-0.218994140625,-0.0994873046875,3.295898199081421,1.7089842557907104,-0.3662109076976776
-0.96728515625,-0.220947265625,-0.110595703125,3.356933355331421,1.5258787870407104,-0.9155272841453552
-0.976806640625,-0.22021484375,-0.0980224609375,4.0283203125,1.6479490995407104,-1.2817381620407104
-0.975830078125,-0.224853515625,-0.1058349609375,4.8828125,1.7089842557907104,-0.6103515625
-0.9705810546875,-0.2197265625,-0.101318359375,3.479003667831421,0.7324218153953552,-0.7324218153953552
-0.96826171875,-0.218505859375,-0.0928955078125,2.624511480331421,0.6103515625,-0.4272460639476776
-0.9642333984375,-0.2208251953125,-0.1097412109375,2.0751953125,0.6103515625,0.4882812201976776
-0.96337890625,-0.218017578125,-0.0987548828125,0.4882812201976776,0.0,0.4882812201976776
-0.9688720703125,-0.2144775390625,-0.0953369140625,-0.4882812201976776,-0.0610351525247097,0.3662109076976776
-0.9725341796875,-0.2213134765625,-0.105712890625,0.1220703050494194,-0.54931640625,0.4272460639476776
-2.3360595703125,-0.0257568359375,-0.2547607421875,-41.992183685302734,-53.466793060302734,134.58251953125
-2.116455078125,-0.406005859375,-0.3504638671875,-5.615233898162842,-61.279293060302734,174.92674255371094
-1.555908203125,-0.677490234375,-0.3548583984375,-13.183592796325684,-49.865718841552734,153.25927734375
-0.79736328125,-0.7193603515625,-0.2125244140625,3.112792730331421,-37.29248046875,140.380859375
-0.3936767578125,-0.594482421875,-0.2003173828125,4.150390625,-12.817381858825684,90.82030487060547
-0.201904296875,-0.610595703125,-0.1488037109375,-4.150390625,16.41845703125,48.461910247802734
-0.06787109375,-0.5426025390625,-0.0986328125,-6.347655773162842,40.10009765625,8.72802734375
0.0491943359375,-0.31591796875,-0.1727294921875,19.83642578125,53.771968841552734,-34.72900390625
0.093017578125,-0.35986328125,0.0267333984375,23.437498092651367,51.025386810302734,-34.24072265625
-0.0374755859375,-0.3306884765625,-0.0009765625,24.047849655151367,46.569820404052734,-34.36279296875
-0.1697998046875,-0.397705078125,0.0111083984375,28.442380905151367,29.907224655151367,-15.380858421325684
-0.396484375,-0.431640625,0.032958984375,18.73779296875,13.671874046325684,-5.065917491912842
-0.5665283203125,-0.5516357421875,-0.0980224609375,5.310058116912842,-4.69970703125,-2.685546636581421
-0.71337890625,-0.6165771484375,-0.0489501953125,-2.929687261581421,-13.305663108825684,-2.0751953125
-0.8173828125,-0.674560546875,-0.1927490234375,7.141112804412842,-10.559081077575684,-2.746581792831421
-0.89111328125,-0.6734619140625,-0.2022705078125,-14.404295921325684,-4.57763671875,-3.967284917831421
-0.890625,-0.6192626953125,-0.202880859375,-0.9155272841453552,5.920409679412842,-3.234863042831421
-0.8466796875,-0.606689453125,-0.1690673828125,-2.13623046875,11.108397483825684,-4.8828125
-0.736328125,-0.5665283203125,-0.1510009765625,1.15966796875,17.88330078125,-4.33349609375
-0.6361083984375,-0.49951171875,-0.0716552734375,1.8920897245407104,15.624999046325684,-2.197265625
-0.544677734375,-0.5440673828125,-0.093994140625,1.4648436307907104,13.854979515075684,2.990722417831421
-0.6068115234375,-0.476318359375,-0.08837890625,-2.685546636581421,10.009765625,4.7607421875
-0.5692138671875,-0.49462890625,-0.041748046875,-13.488768577575684,3.479003667831421,5.554198741912842
-0.5546875,-0.480712890625,-0.084228515625,-7.934569835662842,-0.3662109076976776,5.798339366912842
-0.4520263671875,-0.6038818359375,-0.1199951171875,-10.864256858825684,-14.282225608825684,9.765625
-0.5491943359375,-0.49755859375,0.0206298828125,-19.53125,-13.122557640075684,-0.6713866591453552
-0.409423828125,-0.6402587890625,-0.2320556640625,-4.21142578125,-27.038572311401367,-3.234863042831421
-0.766357421875,-0.5455322265625,0.0257568359375,-26.489255905151367,-28.015134811401367,-18.798828125
-0.5272216796875,-0.7540283203125,-0.265869140625,15.197752952575684,-27.648923873901367,-32.3486328125
-0.93115234375,-0.4649658203125,-0.0830078125,-18.98193359375,-27.221677780151367,-33.5693359375
-0.6676025390625,-0.7747802734375,-0.3182373046875,15.319823265075684,-18.61572265625,-39.0625
-1.066162109375,-0.5474853515625,-0.160888671875,-4.45556640625,-10.009765625,-40.893550872802734
-0.8197021484375,-0.666015625,-0.359130859375,7.995604991912842,-5.065917491912842,-37.41455078125
-1.1114501953125,-0.455078125,-0.1015625,-1.7700194120407104,-2.685546636581421,-39.24560546875
-1.0386962890625,-0.519287109375,-0.262939453125,3.112792730331421,10.070799827575684,-44.677730560302734
-0.914794921875,-0.5318603515625,-0.2694091796875,12.451170921325684,-1.220703125,-35.7666015625
-1.1617431640625,-0.382080078125,-0.08349609375,-18.98193359375,9.33837890625,-45.471187591552734
-0.890625,-0.5123291015625,-0.2955322265625,8.9111328125,8.6669921875,-35.0341796875
-1.11962890625,-0.380126953125,-0.1021728515625,-16.78466796875,7.995604991912842,-36.4990234375
-1.0428466796875,-0.3406982421875,-0.1962890625,-8.544921875,11.474608421325684,-31.127927780151367
-0.9517822265625,-0.3394775390625,-0.101806640625,-7.629394054412842,11.230467796325684,-31.677244186401367
-1.1292724609375,-0.246826171875,-0.11865234375,4.45556640625,25.085447311401367,-27.099607467651367
-1.0325927734375,-0.3662109375,-0.2559814453125,8.85009765625,17.333984375,-19.59228515625
-1.0318603515625,-0.2021484375,-0.052734375,7.385253429412842,12.207030296325684,-19.83642578125
-1.045654296875,-0.2498779296875,-0.0926513671875,31.799314498901367,12.817381858825684,-14.526366233825684
-1.009521484375,-0.30712890625,-0.171630859375,29.602048873901367,7.995604991912842,-19.59228515625
-0.99462890625,-0.2333984375,-0.080810546875,22.399900436401367,6.103515148162842,-21.606443405151367
-0.985107421875,-0.2470703125,-0.11669921875,20.751951217651367,6.469726085662842,-18.49365234375
-0.966552734375,-0.257568359375,-0.14990234375,16.357421875,3.479003667831421,-16.357421875
-0.99609375,-0.2276611328125,-0.0517578125,-2.746581792831421,0.7324218153953552,-15.258788108825684
-1.0001220703125,-0.1995849609375,-0.1356201171875,6.652831554412842,1.7700194120407104,-6.958007335662842
-0.990478515625,-0.2437744140625,-0.1123046875,-8.85009765625,-1.4648436307907104,-8.4228515625
-0.9981689453125,-0.1895751953125,-0.0843505859375,-6.286620616912842,-1.2817381620407104,-5.737304210662842
-0.977294921875,-0.2320556640625,-0.1409912109375,-1.03759765625,-4.2724609375,-4.45556640625
-0.9918212890625,-0.1834716796875,-0.0810546875,-3.112792730331421,-2.0751953125,-5.737304210662842
-0.96826171875,-0.227783203125,-0.1368408203125,5.0048828125,-1.8920897245407104,-4.7607421875
-1.0234375,-0.207763671875,-0.1051025390625,-5.981444835662842,-2.746581792831421,-7.263183116912842
-1.0223388671875,-0.1787109375,-0.1209716796875,4.08935546875,-1.0986328125,-1.8920897245407104
-1.005859375,-0.2271728515625,-0.1195068359375,-2.929687261581421,-1.6479490995407104,-1.5258787870407104
-1.0224609375,-0.1658935546875,-0.0938720703125,-4.45556640625,-1.4648436307907104,-1.2817381620407104
-0.9952392578125,-0.1949462890625,-0.13330078125,2.44140625,-1.7700194120407104,1.3427733182907104
-0.981201171875,-0.1949462890625,-0.1103515625,-1.9531248807907104,-4.150390625,0.9155272841453552
-0.970703125,-0.192138671875,-0.086181640625,2.624511480331421,-2.868652105331421,-0.9765624403953552
-0.955078125,-0.2225341796875,-0.1201171875,0.2441406100988388,-3.479003667831421,-2.44140625
-0.9649658203125,-0.1988525390625,-0.0982666015625,-6.225585460662842,-2.685546636581421,-2.563476324081421
-0.9735107421875,-0.1956787109375,-0.114501953125,-3.723144292831421,-1.220703125,-0.0610351525247097
-0.9925537109375,-0.213623046875,-0.1051025390625,-7.995604991912842,-0.1831054538488388,0.30517578125
-0.9693603515625,-0.19384765625,-0.1220703125,-1.9531248807907104,0.9155272841453552,2.746581792831421
-0.9906005859375,-0.2061767578125,-0.117431640625,-2.01416015625,1.03759765625,3.112792730331421
-0.98193359375,-0.208251953125,-0.1134033203125,-0.9155272841453552,1.15966796875,2.44140625
-0.9764404296875,-0.209716796875,-0.1204833984375,3.845214605331421,1.3427733182907104,2.38037109375
-0.974365234375,-0.2110595703125,-0.114990234375,0.1220703050494194,0.4272460639476776,3.051757574081421
-0.9473876953125,-0.1920166015625,-0.105224609375,1.0986328125,0.2441406100988388,4.82177734375
-0.943603515625,-0.2149658203125,-0.124267578125,-1.0986328125,0.6103515625,4.7607421875
-0.9644775390625,-0.208251953125,-0.1170654296875,-4.0283203125,1.2817381620407104,2.868652105331421
-0.962158203125,-0.2127685546875,-0.133056640625,1.3427733182907104,2.50244140625,1.0986328125
-0.9681396484375,-0.2015380859375,-0.1236572265625,2.990722417831421,2.3193359375,-0.1831054538488388
-0.9705810546875,-0.2027587890625,-0.1153564453125,2.624511480331421,1.15966796875,0.4882812201976776
-0.9725341796875,-0.19921875,-0.130859375,2.38037109375,0.0,0.9765624403953552
-0.9664306640625,-0.21875,-0.1239013671875,1.4038084745407104,-0.4272460639476776,1.15966796875
-0.962646484375,-0.2122802734375,-0.117919921875,0.9765624403953552,-0.1831054538488388,0.1831054538488388
-0.9686279296875,-0.2164306640625,-0.1290283203125,0.0,-0.7324218153953552,-0.4272460639476776
-0.9705810546875,-0.2161865234375,-0.12646484375,0.0,-1.3427733182907104,-1.2817381620407104
-0.973388671875,-0.2196044921875,-0.11865234375,-0.1220703050494194,-1.2817381620407104,-2.0751953125
-0.973388671875,-0.2198486328125,-0.1195068359375,1.6479490995407104,-0.8544921278953552,-1.8310545682907104
-0.9736328125,-0.229248046875,-0.1220703125,1.3427733182907104,-1.03759765625,-1.5869139432907104
-0.9793701171875,-0.21533203125,-0.1085205078125,1.5869139432907104,-0.7324218153953552,-0.7934569716453552
-0.973876953125,-0.221435546875,-0.119873046875,2.868652105331421,-0.4882812201976776,0.2441406100988388
-0.9691162109375,-0.220703125,-0.112060546875,2.197265625,-1.0986328125,0.30517578125
-0.9625244140625,-0.2188720703125,-0.104736328125,1.15966796875,-0.4882812201976776,0.2441406100988388
-0.965087890625,-0.2218017578125,-0.110595703125,-0.2441406100988388,0.1831054538488388,-0.0610351525247097
-0.9752197265625,-0.21240234375,-0.1102294921875,-1.220703125,0.6713866591453552,-0.2441406100988388
-0.9710693359375,-0.21435546875,-0.106201171875,-1.5869139432907104,0.4272460639476776,-0.30517578125
-0.968017578125,-0.2110595703125,-0.1163330078125,0.2441406100988388,1.0986328125,-0.0610351525247097
-0.9759521484375,-0.2164306640625,-0.1175537109375,1.220703125,1.4038084745407104,-0.54931640625
-0.98046875,-0.2125244140625,-0.1103515625,0.54931640625,1.2817381620407104,-0.8544921278953552
-0.9818115234375,-0.2122802734375,-0.110595703125,0.9155272841453552,0.9765624403953552,-0.7934569716453552
-0.97314453125,-0.2130126953125,-0.1168212890625,2.807616949081421,1.220703125,0.0
-0.96240234375,-0.218017578125,-0.1102294921875,2.0751953125,0.7934569716453552,0.0610351525247097
-0.96533203125,-0.2137451171875,-0.1087646484375,-0.1220703050494194,0.4882812201976776,-0.54931640625
-2.4224853515625,0.0562744140625,-0.303466796875,-33.203125,-39.9169921875,103.02733612060547
-2.3731689453125,-0.2901611328125,-0.4029541015625,2.38037109375,-61.645503997802734,172.91258239746094
-1.8060302734375,-0.7408447265625,-0.4190673828125,0.9155272841453552,-54.260250091552734,167.54148864746094
-1.0355224609375,-0.620361328125,-0.1513671875,-13.366698265075684,-37.59765625,142.02880859375
-0.43603515625,-0.7669677734375,-0.19287109375,-4.21142578125,-13.183592796325684,100.09764862060547
-0.1934814453125,-0.4796142578125,-0.18994140625,-5.798339366912842,2.13623046875,47.973628997802734
-0.0233154296875,-0.43017578125,0.0574951171875,-26.489255905151367,16.41845703125,12.145995140075684
0.1160888671875,-0.3773193359375,-0.1524658203125,17.7001953125,24.353025436401367,-17.08984375
-0.013916015625,-0.283203125,-0.0164794921875,14.587401390075684,31.249998092651367,-29.541013717651367
-0.041748046875,-0.2498779296875,-0.0970458984375,21.362302780151367,40.344234466552734,-20.751951217651367
-0.2545166015625,-0.4141845703125,-0.0697021484375,19.95849609375,34.24072265625,-6.408690929412842
-0.416748046875,-0.4498291015625,0.043701171875,1.5258787870407104,26.123044967651367,1.2817381620407104
-0.5528564453125,-0.5655517578125,-0.098388671875,16.6015625,16.05224609375,6.469726085662842
-0.7449951171875,-0.6036376953125,-0.105224609375,-20.690916061401367,2.990722417831421,-0.4882812201976776
-0.760009765625,-0.6741943359375,-0.1090087890625,-4.2724609375,0.9155272841453552,-2.807616949081421
-0.7811279296875,-0.6829833984375,-0.081787109375,-10.864256858825684,1.3427733182907104,-7.141112804412842
-0.7913818359375,-0.681396484375,-0.234375,2.13623046875,3.540038824081421,-7.934569835662842
-0.8309326171875,-0.6689453125,-0.1181640625,-16.6015625,1.2817381620407104,-6.835937023162842
-0.769287109375,-0.6317138671875,-0.1351318359375,0.54931640625,10.437010765075684,-5.676269054412842
-0.7225341796875,-0.644287109375,-0.1075439453125,-5.432128429412842,8.7890625,-4.08935546875
-0.641357421875,-0.5765380859375,-0.1278076171875,-2.868652105331421,3.845214605331421,-1.4648436307907104
-0.58154296875,-0.571533203125,-0.0457763671875,-7.324218273162842,-1.4038084745407104,2.197265625
-0.5806884765625,-0.5618896484375,-0.066650390625,-4.33349609375,-4.69970703125,6.958007335662842
-0.5548095703125,-0.5599365234375,-0.11083984375,-8.11767578125,-10.925292015075684,6.896972179412842
-0.4964599609375,-0.5543212890625,0.0052490234375,-13.916014671325684,-17.822265625,3.601073980331421
-0.590576171875,-0.5633544921875,-0.12109375,-9.521484375,-21.667478561401367,-0.0610351525247097
-0.5682373046875,-0.5286865234375,-0.0714111328125,-16.845703125,-26.306150436401367,-1.8310545682907104
-0.645751953125,-0.5760498046875,-0.16064453125,-15.991209983825684,-23.132322311401367,-6.408690929412842
-0.62548828125,-0.6375732421875,-0.1153564453125,-17.88330078125,-26.000974655151367,-8.1787109375
-0.673828125,-0.59912109375,-0.193115234375,9.27734375,-13.610838890075684,-30.212400436401367
-0.8414306640625,-0.630859375,-0.158447265625,-11.230467796325684,-11.962889671325684,-20.202634811401367
-0.687255859375,-0.6451416015625,-0.2423095703125,9.8876953125,-11.169432640075684,-32.2265625
-0.99267578125,-0.5848388671875,-0.057373046875,4.638671875,-4.5166015625,-33.50830078125
-0.7252197265625,-0.69140625,-0.38134765625,26.611326217651367,-3.540038824081421,-30.212400436401367
-1.0428466796875,-0.5225830078125,-0.0897216796875,-3.417968511581421,0.54931640625,-35.5224609375
-0.7659912109375,-0.5968017578125,-0.2587890625,30.029294967651367,5.065917491912842,-27.587888717651367
-1.02880859375,-0.5191650390625,-0.1661376953125,29.785154342651367,11.718749046325684,-26.245115280151367
-0.7618408203125,-0.52734375,-0.2972412109375,7.080077648162842,7.690429210662842,-26.855466842651367
-0.9442138671875,-0.4891357421875,-0.1429443359375,-3.173827886581421,6.347655773162842,-31.799314498901367
-0.8046875,-0.5177001953125,-0.2274169921875,10.681151390075684,2.929687261581421,-26.916501998901367
-1.023193359375,-0.4200439453125,-0.1160888671875,7.629394054412842,8.11767578125,-28.930662155151367
-0.89453125,-0.4893798828125,-0.330078125,1.0986328125,6.286620616912842,-28.686521530151367
-0.9466552734375,-0.4134521484375,-0.069580078125,-11.047362327575684,3.967284917831421,-30.212400436401367
-1.0635986328125,-0.3504638671875,-0.221923828125,8.36181640625,12.756346702575684,-25.939939498901367
-0.9208984375,-0.451416015625,-0.24853515625,-22.033689498901367,3.417968511581421,-27.465818405151367
-1.0836181640625,-0.29296875,-0.0933837890625,-14.221190452575684,9.27734375,-34.11865234375
-1.0247802734375,-0.40771484375,-0.2545166015625,1.2817381620407104,5.249022960662842,-28.381345748901367
-1.0445556640625,-0.2794189453125,-0.1009521484375,-16.6015625,2.746581792831421,-29.235837936401367
-1.0029296875,-0.2484130859375,-0.155517578125,-14.343260765075684,0.0,-18.1884765625
-0.9874267578125,-0.2818603515625,-0.143798828125,-17.15087890625,-0.7934569716453552,-18.310546875
-0.9833984375,-0.24072265625,-0.125244140625,-0.4272460639476776,-0.30517578125,-16.2353515625
-0.968994140625,-0.264892578125,-0.1475830078125,-1.220703125,0.7324218153953552,-15.930174827575684
-0.9647216796875,-0.25,-0.153564453125,-8.7890625,2.50244140625,-18.00537109375
-0.9674072265625,-0.2572021484375,-0.1285400390625,-6.408690929412842,5.920409679412842,-20.751951217651367
-0.983154296875,-0.2427978515625,-0.145263671875,-0.9155272841453552,7.507323741912842,-20.263669967651367
-0.981201171875,-0.2528076171875,-0.13427734375,-7.202147960662842,6.103515148162842,-18.06640625
-0.983154296875,-0.216796875,-0.1065673828125,-2.50244140625,4.8828125,-15.380858421325684
-1.0076904296875,-0.21240234375,-0.111572265625,-0.6103515625,5.0048828125,-10.559081077575684
-0.978515625,-0.2232666015625,-0.1148681640625,-0.54931640625,3.234863042831421,-8.7890625
-0.9698486328125,-0.2237548828125,-0.1048583984375,1.5869139432907104,3.845214605331421,-8.97216796875
-0.9652099609375,-0.2198486328125,-0.0980224609375,2.50244140625,4.8828125,-8.9111328125
-0.96142578125,-0.232666015625,-0.118896484375,0.6103515625,3.845214605331421,-5.859374523162842
-0.99853515625,-0.2216796875,-0.1021728515625,-0.6713866591453552,3.295898199081421,-2.685546636581421
-1.0198974609375,-0.21533203125,-0.0980224609375,1.220703125,4.0283203125,-0.4272460639476776
-1.0150146484375,-0.2135009765625,-0.12060546875,1.2817381620407104,2.807616949081421,0.54931640625
-1.032958984375,-0.195068359375,-0.12255859375,1.4648436307907104,0.2441406100988388,-1.4038084745407104
-1.0064697265625,-0.197265625,-0.0858154296875,2.197265625,-0.9155272841453552,-2.990722417831421
-0.9771728515625,-0.1644287109375,-0.1190185546875,6.896972179412842,0.3662109076976776,-0.6103515625
-0.9693603515625,-0.1888427734375,-0.1136474609375,3.295898199081421,-0.9155272841453552,-0.4272460639476776
-0.9725341796875,-0.1678466796875,-0.09521484375,5.920409679412842,-0.8544921278953552,-0.3662109076976776
-0.98779296875,-0.1905517578125,-0.122314453125,8.4228515625,-0.4882812201976776,-0.9155272841453552
-0.9976806640625,-0.1900634765625,-0.1168212890625,3.479003667831421,-1.5869139432907104,-1.4648436307907104
-0.98779296875,-0.18212890625,-0.0985107421875,4.150390625,-2.13623046875,0.0610351525247097
-0.9783935546875,-0.1710205078125,-0.120361328125,3.906249761581421,-2.868652105331421,0.54931640625
-0.9559326171875,-0.191162109375,-0.119140625,2.3193359375,-3.723144292831421,0.4272460639476776
-0.9422607421875,-0.177978515625,-0.0989990234375,2.807616949081421,-3.112792730331421,1.7089842557907104
-0.960205078125,-0.1903076171875,-0.12255859375,3.051757574081421,-2.13623046875,2.563476324081421
-1.0028076171875,-0.208740234375,-0.1182861328125,2.746581792831421,-2.0751953125,1.7700194120407104
-1.0164794921875,-0.2030029296875,-0.1181640625,3.906249761581421,-1.4038084745407104,0.1831054538488388
-1.00146484375,-0.1949462890625,-0.1173095703125,5.187987804412842,-1.5869139432907104,-0.9155272841453552
-0.976318359375,-0.2117919921875,-0.1181640625,4.94384765625,-1.5258787870407104,-1.2817381620407104
-0.9691162109375,-0.1968994140625,-0.108154296875,1.220703125,-1.7700194120407104,-1.8310545682907104
-0.966796875,-0.2017822265625,-0.1060791015625,-0.7324218153953552,-1.0986328125,-1.2817381620407104
-0.96044921875,-0.1981201171875,-0.111572265625,-1.9531248807907104,-1.03759765625,-0.4882812201976776
-0.959716796875,-0.1888427734375,-0.11083984375,-3.784179449081421,-0.54931640625,0.6103515625
-0.97021484375,-0.199951171875,-0.1207275390625,-2.807616949081421,0.1220703050494194,-0.1220703050494194
-0.9666748046875,-0.1988525390625,-0.1160888671875,-1.7700194120407104,0.54931640625,-0.4882812201976776
-0.9803466796875,-0.1993408203125,-0.1180419921875,-2.746581792831421,0.30517578125,-0.7324218153953552
-0.9827880859375,-0.1903076171875,-0.1129150390625,-2.0751953125,0.1220703050494194,-0.9155272841453552
-0.9700927734375,-0.1951904296875,-0.1246337890625,-1.7700194120407104,0.4882812201976776,-0.54931640625
-0.9710693359375,-0.19677734375,-0.12109375,-1.5869139432907104,1.03759765625,-0.3662109076976776
-0.978759765625,-0.1927490234375,-0.1251220703125,-0.54931640625,1.8310545682907104,0.4272460639476776
-0.9862060546875,-0.19189453125,-0.1246337890625,-0.7934569716453552,1.7700194120407104,-0.3662109076976776
-0.9716796875,-0.190185546875,-0.12255859375,2.929687261581421,1.4038084745407104,0.0
-0.95947265625,-0.20166015625,-0.1224365234375,2.13623046875,0.7324218153953552,-0.6713866591453552
-0.9659423828125,-0.1954345703125,-0.1131591796875,2.38037109375,1.4648436307907104,-0.54931640625
-0.983154296875,-0.2008056640625,-0.1324462890625,3.234863042831421,1.8920897245407104,0.54931640625
-0.9854736328125,-0.1954345703125,-0.1214599609375,1.7089842557907104,1.4038084745407104,0.0610351525247097
-0.9830322265625,-0.193115234375,-0.1177978515625,2.868652105331421,0.7934569716453552,-0.1220703050494194
-0.9703369140625,-0.1964111328125,-0.1102294921875,1.2817381620407104,0.30517578125,-0.7324218153953552
-2.2640380859375,0.0106201171875,-0.2803955078125,-19.47021484375,-37.9638671875,105.10253143310547
-2.146484375,-0.1900634765625,-0.2520751953125,-0.4882812201976776,-47.607418060302734,154.47998046875
-1.5838623046875,-0.6595458984375,-0.355224609375,-5.798339366912842,-44.799800872802734,149.96337890625
-1.0986328125,-0.6475830078125,-0.170654296875,-19.34814453125,-34.72900390625,138.00048828125
-0.738525390625,-0.6319580078125,-0.1939697265625,-16.90673828125,-13.061522483825684,102.23387908935547
-0.460205078125,-0.6695556640625,-0.19775390625,-27.709959030151367,-1.7089842557907104,69.88525390625
-0.2763671875,-0.3551025390625,-0.0921630859375,-28.625486373901367,8.85009765625,56.762691497802734
-0.0458984375,-0.509033203125,-0.049560546875,-1.0986328125,16.357421875,1.220703125
-0.0579833984375,-0.2835693359375,-0.0413818359375,22.888181686401367,26.428220748901367,-24.169919967651367
-0.0999755859375,-0.4678955078125,-0.1343994140625,35.46142578125,37.353515625,-32.1044921875
-0.0712890625,-0.365966796875,-0.071533203125,29.479978561401367,32.89794921875,-20.751951217651367
-0.2755126953125,-0.3780517578125,0.109375,34.97314453125,34.912109375,-6.652831554412842
-0.4083251953125,-0.5294189453125,-0.173095703125,6.469726085662842,21.240232467651367,0.1831054538488388
-0.6005859375,-0.5277099609375,0.006103515625,-7.202147960662842,5.981444835662842,10.925292015075684
-0.6715087890625,-0.6298828125,-0.1024169921875,-10.681151390075684,3.662109136581421,12.023924827575684
-0.8319091796875,-0.66455078125,-0.1356201171875,-19.8974609375,-4.39453125,7.202147960662842
-0.8284912109375,-0.6815185546875,-0.1424560546875,-11.474608421325684,-2.13623046875,2.685546636581421
-0.823486328125,-0.65869140625,-0.135009765625,-8.48388671875,-1.7700194120407104,-1.4648436307907104
-0.75634765625,-0.65478515625,-0.1307373046875,0.9765624403953552,1.03759765625,-5.249022960662842
-0.6905517578125,-0.624267578125,-0.1134033203125,0.3662109076976776,-0.1220703050494194,-5.615233898162842
-0.6490478515625,-0.6331787109375,-0.0721435546875,-1.5258787870407104,-1.7700194120407104,-1.220703125
-0.694580078125,-0.62158203125,-0.11669921875,-5.0048828125,-1.7700194120407104,3.417968511581421
-0.717529296875,-0.6318359375,-0.1427001953125,-10.498045921325684,-0.9155272841453552,6.591796398162842
-0.7706298828125,-0.634521484375,-0.1156005859375,-12.390135765075684,-0.6103515625,5.859374523162842
-0.7747802734375,-0.650390625,-0.138671875,-6.103515148162842,1.2817381620407104,2.868652105331421
-0.7265625,-0.642333984375,-0.089111328125,-0.7324218153953552,1.220703125,0.1831054538488388
-0.6453857421875,-0.6002197265625,-0.078857421875,4.5166015625,0.54931640625,-3.479003667831421
-0.4891357421875,-0.5460205078125,-0.0849609375,-0.0610351525247097,-6.713866710662842,-3.601073980331421
-0.5047607421875,-0.4974365234375,0.020263671875,-2.13623046875,-13.305663108825684,-4.5166015625
-0.4097900390625,-0.5660400390625,-0.0787353515625,6.713866710662842,-19.4091796875,-0.9765624403953552
-0.546875,-0.4736328125,-0.041015625,-10.009765625,-20.324705123901367,-7.263183116912842
-0.4583740234375,-0.6968994140625,-0.17138671875,-10.803221702575684,-25.695798873901367,-11.352538108825684
-0.7301025390625,-0.5048828125,-0.0570068359375,-12.390135765075684,-24.963376998901367,-11.108397483825684
-0.5655517578125,-0.7103271484375,-0.2713623046875,-12.756346702575684,-18.61572265625,-35.33935546875
-0.867919921875,-0.6534423828125,-0.1483154296875,-21.484373092651367,-17.7001953125,-22.277830123901367
-0.718017578125,-0.5667724609375,-0.25537109375,-5.126952648162842,-12.390135765075684,-36.0107421875
-0.98193359375,-0.6748046875,-0.150634765625,-10.742186546325684,-8.97216796875,-27.282712936401367
-0.7591552734375,-0.632568359375,-0.2540283203125,-9.46044921875,-10.803221702575684,-35.400390625
-0.9931640625,-0.5360107421875,-0.0986328125,18.12744140625,2.563476324081421,-38.0859375
-0.8267822265625,-0.679443359375,-0.3858642578125,-5.920409679412842,-6.713866710662842,-30.700681686401367
-1.0970458984375,-0.474853515625,0.01513671875,-8.6669921875,-1.3427733182907104,-38.14697265625
-0.9354248046875,-0.5390625,-0.2781982421875,18.61572265625,4.5166015625,-30.517576217651367
-0.90478515625,-0.5325927734375,-0.164794921875,-6.652831554412842,-2.746581792831421,-28.198240280151367
-1.0218505859375,-0.4403076171875,-0.1455078125,-0.4272460639476776,4.150390625,-33.63037109375
-0.875732421875,-0.5062255859375,-0.1800537109375,3.540038824081421,2.685546636581421,-27.709959030151367
-1.0850830078125,-0.392333984375,-0.1734619140625,-11.047362327575684,2.563476324081421,-34.5458984375
-0.9954833984375,-0.3668212890625,-0.181884765625,-4.57763671875,1.5258787870407104,-29.174802780151367
-0.9464111328125,-0.3851318359375,-0.11962890625,-0.1220703050494194,2.01416015625,-25.024412155151367
-1.0313720703125,-0.3426513671875,-0.1583251953125,0.2441406100988388,5.432128429412842,-26.428220748901367
-0.979248046875,-0.3565673828125,-0.173095703125,7.141112804412842,7.934569835662842,-23.925779342651367
-0.9317626953125,-0.312255859375,-0.17529296875,5.981444835662842,8.60595703125,-23.376462936401367
-0.9420166015625,-0.3221435546875,-0.1236572265625,0.0610351525247097,8.9111328125,-26.062009811401367
-0.9876708984375,-0.3212890625,-0.151123046875,8.9111328125,11.169432640075684,-28.015134811401367
-0.981689453125,-0.2740478515625,-0.1953125,11.535643577575684,8.60595703125,-25.756834030151367
-0.9749755859375,-0.275146484375,-0.11328125,-3.173827886581421,5.493163585662842,-23.010251998901367
-0.978271484375,-0.235107421875,-0.110107421875,9.21630859375,10.009765625,-17.63916015625
-0.9791259765625,-0.272705078125,-0.171875,15.380858421325684,9.21630859375,-13.610838890075684
-0.9984130859375,-0.2718505859375,-0.13818359375,7.873534679412842,6.347655773162842,-12.145995140075684
-1.0003662109375,-0.2125244140625,-0.11083984375,9.21630859375,6.042479991912842,-8.056640625
-0.99072265625,-0.262451171875,-0.1495361328125,6.835937023162842,5.676269054412842,-5.493163585662842
-1.0018310546875,-0.2764892578125,-0.1207275390625,-4.08935546875,2.624511480331421,-6.286620616912842
-1.0528564453125,-0.2059326171875,-0.10693359375,4.69970703125,5.798339366912842,-1.03759765625
-1.02197265625,-0.269287109375,-0.1751708984375,10.192870140075684,4.5166015625,3.540038824081421
-1.019287109375,-0.2301025390625,-0.099365234375,-3.479003667831421,0.30517578125,5.065917491912842
-1.0130615234375,-0.2178955078125,-0.0782470703125,4.638671875,0.0,7.934569835662842
-0.9935302734375,-0.2327880859375,-0.1329345703125,7.141112804412842,-0.4272460639476776,8.72802734375
-0.9810791015625,-0.2398681640625,-0.1187744140625,-2.0751953125,-2.38037109375,6.164550304412842
-0.9693603515625,-0.2181396484375,-0.09814453125,1.5258787870407104,-1.220703125,4.39453125
-0.9359130859375,-0.223876953125,-0.125732421875,4.150390625,-0.3662109076976776,2.197265625
-0.928955078125,-0.207275390625,-0.1014404296875,-3.784179449081421,-0.1831054538488388,-7.080077648162842
-0.960205078125,-0.2406005859375,-0.0953369140625,-1.7700194120407104,2.685546636581421,-12.756346702575684
-0.95654296875,-0.233642578125,-0.146484375,1.5258787870407104,1.15966796875,-9.033203125
-0.96630859375,-0.1788330078125,-0.091796875,-3.540038824081421,-0.2441406100988388,-4.33349609375
-0.9736328125,-0.17919921875,-0.0933837890625,1.4038084745407104,0.6713866591453552,-0.7934569716453552
-0.9874267578125,-0.2227783203125,-0.1190185546875,4.39453125,-0.1220703050494194,-1.4038084745407104
-0.9940185546875,-0.2105712890625,-0.1107177734375,2.25830078125,-0.6713866591453552,-2.44140625
-0.9803466796875,-0.2261962890625,-0.0972900390625,2.990722417831421,-0.6103515625,-3.845214605331421
-0.97021484375,-0.23095703125,-0.112060546875,2.807616949081421,-0.8544921278953552,-5.554198741912842
-0.9749755859375,-0.2327880859375,-0.1075439453125,-0.1831054538488388,-0.9765624403953552,-7.385253429412842
-0.9677734375,-0.2203369140625,-0.104248046875,-0.8544921278953552,-0.6713866591453552,-6.164550304412842
-0.95947265625,-0.2169189453125,-0.0992431640625,-4.638671875,-0.9765624403953552,-4.7607421875
-0.977294921875,-0.233642578125,-0.101318359375,-8.11767578125,-0.54931640625,-5.310058116912842
-0.9774169921875,-0.2442626953125,-0.1220703125,-8.30078125,0.3662109076976776,-6.774901866912842
-0.968505859375,-0.2196044921875,-0.1021728515625,-8.36181640625,0.9765624403953552,-7.263183116912842
-0.95703125,-0.205078125,-0.1036376953125,-4.5166015625,0.7324218153953552,-4.08935546875
-0.959228515625,-0.204833984375,-0.1097412109375,-4.2724609375,-0.1831054538488388,-1.0986328125
-0.976806640625,-0.2100830078125,-0.110595703125,-2.01416015625,-0.7934569716453552,-0.2441406100988388
-0.9805908203125,-0.2081298828125,-0.1123046875,0.0610351525247097,-1.15966796875,0.8544921278953552
-0.9727783203125,-0.2110595703125,-0.1092529296875,2.929687261581421,-1.3427733182907104,0.54931640625
-0.96875,-0.208984375,-0.1131591796875,3.967284917831421,-1.220703125,0.9155272841453552
-0.984130859375,-0.2005615234375,-0.1102294921875,0.9155272841453552,-0.9155272841453552,1.3427733182907104
-0.9906005859375,-0.209716796875,-0.114990234375,3.356933355331421,-0.6713866591453552,1.7700194120407104
-0.9735107421875,-0.2064208984375,-0.1055908203125,3.295898199081421,-1.5258787870407104,0.6713866591453552
-0.9556884765625,-0.212646484375,-0.0950927734375,-0.2441406100988388,-1.7700194120407104,-0.7324218153953552
-0.9466552734375,-0.21435546875,-0.1124267578125,-0.30517578125,-0.8544921278953552,-0.6713866591453552
-0.9669189453125,-0.211669921875,-0.112060546875,-1.7700194120407104,-0.2441406100988388,-0.2441406100988388
-0.9884033203125,-0.2066650390625,-0.107666015625,-2.685546636581421,0.1220703050494194,0.2441406100988388
-0.985595703125,-0.1988525390625,-0.103759765625,1.2817381620407104,0.2441406100988388,-0.30517578125
-0.961669921875,-0.2059326171875,-0.1103515625,2.44140625,-0.6103515625,-0.7934569716453552
-0.920166015625,-0.196044921875,-0.0992431640625,1.4038084745407104,-1.3427733182907104,-0.6103515625
-2.271484375,-0.0284423828125,-0.3681640625,-15.380858421325684,-34.97314453125,92.22411346435547
-2.4189453125,-0.216552734375,-0.2237548828125,-8.1787109375,-45.349117279052734,159.24072265625
-1.826904296875,-0.7060546875,-0.4146728515625,9.33837890625,-40.710445404052734,172.60740661621094
-1.326416015625,-0.80078125,-0.2779541015625,2.990722417831421,-38.02490234375,155.94482421875
-0.641357421875,-0.565185546875,0.002685546875,-9.09423828125,-17.15087890625,113.95262908935547
-0.341064453125,-0.6279296875,-0.17431640625,6.591796398162842,1.9531248807907104,78.67431640625
-0.172119140625,-0.64306640625,-0.095458984375,3.967284917831421,9.94873046875,42.480464935302734
-0.002197265625,-0.2484130859375,0.0224609375,19.775390625,25.878904342651367,-6.103515148162842
0.0982666015625,-0.4423828125,0.0430908203125,31.738279342651367,32.53173828125,-18.06640625
0.01513671875,-0.2724609375,-0.077392578125,42.968746185302734,24.291990280151367,-26.733396530151367
-0.151123046875,-0.343994140625,-0.0367431640625,30.761716842651367,16.4794921875,-15.624999046325684
-0.3154296875,-0.399658203125,-0.0465087890625,37.17041015625,18.4326171875,-2.0751953125
-0.489013671875,-0.5213623046875,-0.197021484375,11.413573265075684,12.634276390075684,1.7700194120407104
-0.6202392578125,-0.5484619140625,-0.079345703125,-1.7700194120407104,7.263183116912842,4.0283203125
-0.6871337890625,-0.688720703125,-0.134521484375,-0.1220703050494194,5.371093273162842,5.0048828125
-0.7637939453125,-0.6527099609375,-0.1968994140625,-9.1552734375,-0.1220703050494194,1.03759765625
-0.7674560546875,-0.6925048828125,-0.15966796875,-7.019042491912842,-3.417968511581421,-2.685546636581421
-0.787109375,-0.734130859375,-0.1903076171875,-3.601073980331421,-2.44140625,-3.234863042831421
-0.7567138671875,-0.69921875,-0.2344970703125,0.7324218153953552,0.9765624403953552,-1.5869139432907104
-0.7457275390625,-0.6839599609375,-0.2198486328125,-2.01416015625,4.8828125,-1.9531248807907104
-0.7376708984375,-0.6685791015625,-0.19287109375,3.784179449081421,7.751464366912842,-1.3427733182907104
-0.701904296875,-0.6614990234375,-0.1806640625,-1.220703125,6.835937023162842,-2.197265625
-0.6788330078125,-0.649169921875,-0.1761474609375,1.8310545682907104,3.112792730331421,-3.723144292831421
-0.68505859375,-0.61962890625,-0.1810302734375,1.0986328125,-0.2441406100988388,-1.7089842557907104
-0.6849365234375,-0.627197265625,-0.170654296875,-2.50244140625,-0.9765624403953552,-1.9531248807907104
-0.68896484375,-0.616455078125,-0.159912109375,-0.4882812201976776,-2.929687261581421,-4.21142578125
-0.65380859375,-0.5986328125,-0.1571044921875,0.9155272841453552,-4.7607421875,-3.356933355331421
-0.583740234375,-0.545166015625,-0.114501953125,-2.746581792831421,-5.126952648162842,-3.173827886581421
-0.517578125,-0.52734375,-0.107177734375,-2.990722417831421,-7.995604991912842,-4.8828125
-0.49560546875,-0.5748291015625,-0.1009521484375,-6.652831554412842,-13.854979515075684,-3.295898199081421
-0.5496826171875,-0.48193359375,-0.1173095703125,-11.535643577575684,-19.1650390625,-3.173827886581421
-0.4559326171875,-0.6875,-0.1751708984375,-22.705076217651367,-18.24951171875,-3.723144292831421
-0.6517333984375,-0.4461669921875,-0.1229248046875,-23.864744186401367,-15.380858421325684,-13.854979515075684
-0.4912109375,-0.711669921875,-0.1661376953125,-35.888671875,-13.427733421325684,-20.874021530151367
-0.647216796875,-0.4937744140625,-0.05615234375,-31.311033248901367,-5.981444835662842,-34.5458984375
-0.632080078125,-0.842041015625,-0.2979736328125,-26.000974655151367,3.845214605331421,-29.052732467651367
-0.760498046875,-0.6876220703125,-0.1473388671875,-58.044429779052734,-2.01416015625,-32.1044921875
-0.8546142578125,-0.679443359375,-0.1905517578125,-22.705076217651367,7.507323741912842,-30.029294967651367
-0.8621826171875,-0.6279296875,-0.1578369140625,-35.15625,-4.0283203125,-23.071287155151367
-0.8985595703125,-0.5970458984375,-0.097412109375,-31.311033248901367,5.065917491912842,-44.128414154052734
-0.8187255859375,-0.768798828125,-0.2716064453125,-15.869139671325684,-2.25830078125,-30.761716842651367
-1.1429443359375,-0.5242919921875,-0.0577392578125,-16.11328125,-2.25830078125,-40.0390625
-0.9127197265625,-0.68994140625,-0.1806640625,-12.878417015075684,-4.7607421875,-32.71484375
-1.1453857421875,-0.4354248046875,-0.0811767578125,-11.474608421325684,-1.220703125,-30.944822311401367
-0.9149169921875,-0.533935546875,-0.1260986328125,-12.817381858825684,-1.4648436307907104,-27.893064498901367
-1.0489501953125,-0.447509765625,-0.1009521484375,-20.202634811401367,-1.7089842557907104,-27.832029342651367
-0.92138671875,-0.45849609375,-0.0689697265625,-20.141599655151367,-1.2817381620407104,-26.062009811401367
-1.0684814453125,-0.4176025390625,-0.026123046875,-14.038084983825684,2.685546636581421,-29.724119186401367
-1.02685546875,-0.40234375,-0.162841796875,-6.652831554412842,6.530761241912842,-22.399900436401367
-0.9560546875,-0.390625,-0.089599609375,-33.75244140625,0.4882812201976776,-22.155759811401367
-0.959716796875,-0.3212890625,-0.0115966796875,-20.629880905151367,1.2817381620407104,-22.216794967651367
-1.0633544921875,-0.3636474609375,-0.0723876953125,-17.9443359375,5.187987804412842,-18.9208984375
-0.9788818359375,-0.36572265625,-0.1114501953125,-19.1650390625,1.6479490995407104,-13.977049827575684
-0.9697265625,-0.324462890625,-0.0369873046875,-34.11865234375,-2.746581792831421,-10.864256858825684
-0.9400634765625,-0.3505859375,-0.0352783203125,-33.38623046875,-7.019042491912842,-15.991209983825684
-0.944091796875,-0.302734375,-0.014404296875,-28.137205123901367,-5.676269054412842,-18.85986328125
-0.931884765625,-0.33642578125,-0.0496826171875,-26.733396530151367,-5.554198741912842,-18.98193359375
-0.924560546875,-0.309814453125,-0.0203857421875,-27.038572311401367,-5.859374523162842,-20.996091842651367
-0.9400634765625,-0.2762451171875,-0.028076171875,-15.686034202575684,-4.94384765625,-18.6767578125
-0.98291015625,-0.3052978515625,-0.0447998046875,-24.414060592651367,-4.8828125,-16.54052734375
-1.019287109375,-0.277587890625,-0.0174560546875,-21.667478561401367,-3.662109136581421,-14.892577171325684
-1.0350341796875,-0.2767333984375,-0.041748046875,-12.145995140075684,-1.15966796875,-10.192870140075684
-1.0582275390625,-0.2738037109375,-0.0341796875,-9.94873046875,-2.3193359375,-9.70458984375
-1.0528564453125,-0.26025390625,-0.00439453125,-4.21142578125,-2.0751953125,-8.1787109375
-1.0198974609375,-0.2645263671875,-0.031494140625,4.5166015625,-1.2817381620407104,-4.5166015625
-0.9940185546875,-0.2584228515625,-0.0166015625,0.54931640625,-2.685546636581421,-0.1220703050494194
-0.98095703125,-0.2684326171875,-0.0030517578125,-1.0986328125,-2.990722417831421,0.54931640625
-0.922607421875,-0.2598876953125,-0.018310546875,-3.234863042831421,-3.417968511581421,-0.0610351525247097
-0.9256591796875,-0.2635498046875,-0.029296875,-10.620116233825684,-3.479003667831421,-0.4272460639476776
-0.937255859375,-0.2626953125,-0.0399169921875,-14.282225608825684,-5.554198741912842,-2.685546636581421
-0.9520263671875,-0.2733154296875,-0.015625,-17.4560546875,-6.225585460662842,-5.798339366912842
-0.9769287109375,-0.2760009765625,-0.0479736328125,-18.798828125,-6.042479991912842,-5.798339366912842
-1.0028076171875,-0.2755126953125,-0.04443359375,-23.376462936401367,-7.080077648162842,-4.21142578125
-1.0103759765625,-0.2535400390625,-0.0308837890625,-23.559568405151367,-6.530761241912842,-2.197265625
-0.9970703125,-0.249267578125,-0.039306640625,-21.362302780151367,-5.981444835662842,1.2817381620407104
-1.020263671875,-0.2237548828125,-0.028076171875,-23.071287155151367,-4.8828125,6.225585460662842
-0.9471435546875,-0.302734375,-0.0447998046875,-10.192870140075684,-2.868652105331421,7.141112804412842
-0.95703125,-0.217041015625,-0.0159912109375,-13.122557640075684,-6.530761241912842,0.9765624403953552
-0.958984375,-0.2545166015625,0.0126953125,-3.967284917831421,-5.0048828125,0.1831054538488388
-0.943359375,-0.215087890625,-0.055419921875,-0.4272460639476776,-3.234863042831421,0.8544921278953552
-0.956787109375,-0.292724609375,-0.028564453125,-6.164550304412842,-3.723144292831421,0.1831054538488388
-0.91162109375,-0.2415771484375,-0.0174560546875,-6.652831554412842,-4.08935546875,-3.906249761581421
-0.9501953125,-0.2652587890625,-0.00146484375,-3.356933355331421,-3.112792730331421,-1.5869139432907104
-0.95751953125,-0.306396484375,-0.02099609375,-19.6533203125,-6.408690929412842,-6.652831554412842
-0.9722900390625,-0.2308349609375,0.0001220703125,-12.878417015075684,-2.746581792831421,-1.03759765625
-0.955078125,-0.2677001953125,-0.03271484375,-16.29638671875,-0.9155272841453552,0.30517578125
-0.9365234375,-0.2467041015625,-0.0325927734375,-18.06640625,-0.0610351525247097,-1.220703125
-0.9603271484375,-0.2489013671875,0.003173828125,-11.535643577575684,1.0986328125,-2.25830078125
-0.9615478515625,-0.2373046875,-0.0308837890625,4.08935546875,3.234863042831421,-1.03759765625
-0.94921875,-0.2540283203125,-0.01318359375,5.920409679412842,3.784179449081421,-2.868652105331421
-0.964111328125,-0.2437744140625,-0.0172119140625,10.192870140075684,5.432128429412842,-1.0986328125
-0.99072265625,-0.2603759765625,-0.0072021484375,12.878417015075684,7.080077648162842,0.0
-0.96337890625,-0.2803955078125,-0.0223388671875,10.131834983825684,6.591796398162842,1.3427733182907104
-0.9891357421875,-0.28271484375,-0.002197265625,1.3427733182907104,5.310058116912842,-3.234863042831421
-0.9354248046875,-0.2724609375,-0.0411376953125,-2.3193359375,6.164550304412842,-4.5166015625
-0.9853515625,-0.2855224609375,-0.012451171875,-4.150390625,4.45556640625,-6.286620616912842
-0.9976806640625,-0.245849609375,-0.0072021484375,1.2817381620407104,4.21142578125,-2.868652105331421
-0.98828125,-0.2564697265625,-0.033203125,6.042479991912842,3.845214605331421,1.0986328125
-0.9765625,-0.242919921875,0.0015869140625,5.798339366912842,1.7700194120407104,4.0283203125
-2.15185546875,-0.1378173828125,-0.46875,17.333984375,-13.244627952575684,30.700681686401367
-2.5908203125,0.0579833984375,-0.2672119140625,-3.967284917831421,-33.50830078125,119.68993377685547
-2.3353271484375,-0.2440185546875,-0.2059326171875,25.634763717651367,-36.19384765625,172.97361755371094
-1.6568603515625,-0.7108154296875,-0.33203125,9.58251953125,-40.710445404052734,165.28318786621094
-0.8865966796875,-0.6834716796875,-0.082763671875,-29.846189498901367,-44.738765716552734,135.3759765625
-0.5272216796875,-0.6904296875,-0.034912109375,17.9443359375,-25.024412155151367,102.72216033935547
-0.2437744140625,-0.523193359375,-0.07470703125,14.465331077575684,-10.131834983825684,47.851558685302734
-0.208740234375,-0.56103515625,-0.0052490234375,-1.220703125,0.0,5.249022960662842
-0.0887451171875,-0.2987060546875,-0.0849609375,39.73388671875,4.638671875,-15.624999046325684
-0.28515625,-0.542236328125,0.0732421875,44.616695404052734,18.85986328125,-23.376462936401367
-0.1768798828125,-0.3753662109375,-0.1396484375,74.52392578125,31.738279342651367,-24.353025436401367
-0.2120361328125,-0.5230712890625,-0.0654296875,26.245115280151367,22.644041061401367,-20.690916061401367
-0.4234619140625,-0.474853515625,-0.003173828125,30.029294967651367,23.254392623901367,-11.352538108825684
-0.4486083984375,-0.4913330078125,-0.0802001953125,10.437010765075684,17.7001953125,0.6713866591453552
-0.6180419921875,-0.531982421875,-0.09423828125,-4.7607421875,9.82666015625,9.765625
-0.7222900390625,-0.5234375,-0.1572265625,-10.986327171325684,9.70458984375,12.268065452575684
-0.7764892578125,-0.5806884765625,-0.1622314453125,-27.404783248901367,5.920409679412842,12.817381858825684
-0.8475341796875,-0.5660400390625,-0.1568603515625,-5.615233898162842,5.0048828125,10.009765625
-0.876953125,-0.63671875,-0.18505859375,-3.784179449081421,4.08935546875,3.662109136581421
-0.7935791015625,-0.5321044921875,-0.1451416015625,-3.234863042831421,5.0048828125,-3.967284917831421
-0.782958984375,-0.5770263671875,-0.1229248046875,6.225585460662842,7.995604991912842,-11.474608421325684
-0.74365234375,-0.5841064453125,-0.0882568359375,-4.94384765625,3.295898199081421,-11.169432640075684
-0.7354736328125,-0.58544921875,-0.114501953125,-5.493163585662842,2.990722417831421,-8.60595703125
-0.7086181640625,-0.5462646484375,-0.1260986328125,-13.549803733825684,-1.5258787870407104,-4.8828125
-0.6986083984375,-0.5577392578125,-0.0936279296875,-13.549803733825684,-0.1831054538488388,-4.638671875
-0.6654052734375,-0.5367431640625,-0.0859375,-12.084959983825684,-2.624511480331421,-1.3427733182907104
-0.5853271484375,-0.540283203125,-0.0760498046875,-6.469726085662842,-5.981444835662842,-0.30517578125
-0.5892333984375,-0.450927734375,-0.0059814453125,-8.60595703125,-12.023924827575684,-1.8310545682907104
-0.5838623046875,-0.533935546875,-0.0927734375,-6.286620616912842,-10.375975608825684,-4.7607421875
-0.571044921875,-0.508056640625,-0.1085205078125,-15.075682640075684,-16.357421875,-6.225585460662842
-0.6949462890625,-0.5360107421875,-0.0518798828125,-20.446775436401367,-9.521484375,-10.620116233825684
-0.7261962890625,-0.5355224609375,-0.1746826171875,-13.122557640075684,-14.892577171325684,-8.6669921875
-0.725341796875,-0.6285400390625,-0.1007080078125,-39.97802734375,-17.27294921875,-18.798828125
-0.79345703125,-0.5465087890625,-0.0980224609375,-18.798828125,-15.197752952575684,-26.184080123901367
-0.7236328125,-0.72119140625,-0.1790771484375,-38.0859375,-17.51708984375,-21.545408248901367
-0.903564453125,-0.4891357421875,-0.0792236328125,-17.27294921875,-7.324218273162842,-34.60693359375
-0.722900390625,-0.716552734375,-0.301025390625,-36.92626953125,-12.451170921325684,-21.484373092651367
-1.0550537109375,-0.428955078125,-0.029296875,-20.202634811401367,-5.737304210662842,-34.7900390625
-0.739013671875,-0.6376953125,-0.245361328125,-9.82666015625,-8.48388671875,-23.864744186401367
-1.0523681640625,-0.4365234375,-0.0467529296875,-19.53125,-8.72802734375,-33.8134765625
-0.8399658203125,-0.57568359375,-0.2359619140625,-2.3193359375,-4.57763671875,-25.207517623901367
-0.977783203125,-0.4617919921875,-0.0556640625,-9.82666015625,-5.0048828125,-29.663084030151367
-1.0224609375,-0.4581298828125,-0.1983642578125,-5.0048828125,6.835937023162842,-21.850584030151367
-0.880859375,-0.489501953125,-0.158935546875,-18.98193359375,0.1220703050494194,-25.268552780151367
-1.055419921875,-0.348876953125,-0.123779296875,-9.94873046875,3.601073980331421,-29.052732467651367
-0.9193115234375,-0.43603515625,-0.141357421875,-13.366698265075684,2.13623046875,-26.977537155151367
-1.1029052734375,-0.307373046875,-0.092041015625,-1.5869139432907104,8.6669921875,-30.639646530151367
-0.9659423828125,-0.3409423828125,-0.1793212890625,-2.25830078125,10.009765625,-26.184080123901367
-0.985107421875,-0.3216552734375,-0.08740234375,-9.1552734375,7.019042491912842,-30.090330123901367
-1.06494140625,-0.2752685546875,-0.092041015625,7.324218273162842,8.056640625,-24.291990280151367
-0.9967041015625,-0.30126953125,-0.1180419921875,5.065917491912842,4.94384765625,-18.73779296875
-0.9998779296875,-0.2620849609375,-0.088134765625,3.417968511581421,2.868652105331421,-14.892577171325684
-1.012451171875,-0.249755859375,-0.0772705078125,9.3994140625,5.126952648162842,-12.268065452575684
-1.0076904296875,-0.296875,-0.1138916015625,11.291502952575684,6.347655773162842,-12.817381858825684
-1.0404052734375,-0.255615234375,-0.0950927734375,3.662109136581421,5.920409679412842,-15.014647483825684
-1.03271484375,-0.2493896484375,-0.06103515625,10.253905296325684,6.347655773162842,-12.634276390075684
-1.030029296875,-0.241943359375,-0.0894775390625,14.221190452575684,5.737304210662842,-8.9111328125
-1.02880859375,-0.2276611328125,-0.06982421875,9.033203125,4.69970703125,-10.253905296325684
-1.035400390625,-0.2264404296875,-0.069580078125,15.075682640075684,3.723144292831421,-8.4228515625
-1.024169921875,-0.2369384765625,-0.0782470703125,9.09423828125,1.15966796875,-2.25830078125
-1.012451171875,-0.198974609375,-0.0460205078125,6.958007335662842,0.54931640625,4.8828125
-0.988037109375,-0.2467041015625,-0.0694580078125,8.4228515625,1.3427733182907104,7.934569835662842
-0.978515625,-0.2447509765625,-0.0675048828125,3.723144292831421,-0.1220703050494194,4.69970703125
-0.9656982421875,-0.2408447265625,-0.0552978515625,2.3193359375,0.8544921278953552,2.13623046875
-0.9588623046875,-0.2567138671875,-0.07666015625,1.2817381620407104,0.7324218153953552,0.6103515625
-0.954345703125,-0.250732421875,-0.0606689453125,-2.0751953125,0.1220703050494194,-1.03759765625
-0.9576416015625,-0.23388671875,-0.057861328125,-2.197265625,0.8544921278953552,-1.15966796875
-0.95556640625,-0.246826171875,-0.0777587890625,-3.906249761581421,0.0,-0.4882812201976776
-0.959228515625,-0.234619140625,-0.0567626953125,-5.310058116912842,-0.8544921278953552,-0.2441406100988388
-0.9659423828125,-0.24853515625,-0.0738525390625,-2.746581792831421,0.1220703050494194,0.1220703050494194
-0.966064453125,-0.240234375,-0.07177734375,-2.624511480331421,0.0,-1.6479490995407104
-0.968505859375,-0.2386474609375,-0.0599365234375,1.0986328125,0.0,-1.0986328125
-0.969482421875,-0.2398681640625,-0.0631103515625,2.3193359375,-0.6103515625,-1.4648436307907104
-0.973388671875,-0.24853515625,-0.070068359375,2.38037109375,-0.8544921278953552,-2.13623046875
-0.97509765625,-0.2525634765625,-0.0634765625,-0.3662109076976776,-1.220703125,-2.13623046875
-0.9696044921875,-0.2462158203125,-0.061279296875,-1.03759765625,-1.2817381620407104,-1.5869139432907104
-0.967041015625,-0.2525634765625,-0.06201171875,-2.01416015625,-1.5869139432907104,-0.8544921278953552
-0.9671630859375,-0.2457275390625,-0.0594482421875,-3.417968511581421,-1.9531248807907104,-1.4038084745407104
-0.9664306640625,-0.24609375,-0.05517578125,-2.807616949081421,-1.03759765625,-1.4648436307907104
-0.9591064453125,-0.2412109375,-0.07080078125,-1.4038084745407104,-0.8544921278953552,-1.03759765625
-0.9677734375,-0.2459716796875,-0.0579833984375,-0.3662109076976776,-0.9765624403953552,-1.2817381620407104
-0.974365234375,-0.240478515625,-0.065673828125,0.1831054538488388,-0.6713866591453552,-1.03759765625
-0.968017578125,-0.25048828125,-0.066650390625,-0.1831054538488388,-0.9765624403953552,-1.7700194120407104
-0.9661865234375,-0.2430419921875,-0.0592041015625,-2.13623046875,-0.9765624403953552,-1.2817381620407104
-0.9678955078125,-0.248046875,-0.0714111328125,-0.4272460639476776,-0.3662109076976776,-1.4038084745407104
-0.9681396484375,-0.2525634765625,-0.0640869140625,0.4882812201976776,0.0,-2.13623046875
-0.96337890625,-0.2452392578125,-0.0582275390625,-0.9765624403953552,0.0,-1.4648436307907104
-0.965576171875,-0.244140625,-0.0638427734375,-0.7324218153953552,0.7324218153953552,-0.6713866591453552
-0.9683837890625,-0.2509765625,-0.0758056640625,3.051757574081421,1.6479490995407104,-0.1831054538488388
-0.969970703125,-0.2471923828125,-0.0645751953125,1.8920897245407104,1.4038084745407104,0.0
-0.9749755859375,-0.24609375,-0.0682373046875,2.3193359375,1.5258787870407104,-0.2441406100988388
-0.9742431640625,-0.2452392578125,-0.07080078125,2.197265625,1.5869139432907104,0.1831054538488388
-0.9661865234375,-0.2474365234375,-0.0711669921875,0.54931640625,1.2817381620407104,0.6103515625
-0.960693359375,-0.24072265625,-0.0635986328125,-2.0751953125,0.7324218153953552,0.4272460639476776
-0.9605712890625,-0.235595703125,-0.0693359375,-1.2817381620407104,0.7934569716453552,0.9765624403953552
-0.9656982421875,-0.2432861328125,-0.073974609375,-1.7089842557907104,0.8544921278953552,1.15966796875
-0.9794921875,-0.238037109375,-0.072021484375,-0.9765624403953552,0.6713866591453552,1.220703125
-0.9803466796875,-0.234375,-0.068115234375,1.4648436307907104,0.6103515625,0.6103515625
-0.960205078125,-0.241943359375,-0.0718994140625,3.784179449081421,0.0,-0.1831054538488388
-0.9610595703125,-0.24951171875,-0.061767578125,1.0986328125,-0.30517578125,-0.7934569716453552
-2.0501708984375,-0.16552734375,-0.3670654296875,-1.8310545682907104,-15.136717796325684,32.71484375
-2.388916015625,-0.1070556640625,-0.2943115234375,21.728513717651367,-36.62109375,105.65184783935547
-2.2327880859375,-0.3233642578125,-0.3228759765625,21.179197311401367,-48.645015716552734,156.25
-1.5582275390625,-0.6925048828125,-0.3175048828125,15.930174827575684,-47.729488372802734,160.64451599121094
-0.913330078125,-0.577392578125,-0.1927490234375,-6.835937023162842,-44.921871185302734,129.0283203125
-0.4832763671875,-0.712646484375,-0.0711669921875,10.681151390075684,-21.972654342651367,90.88134002685547
-0.2791748046875,-0.634521484375,-0.2218017578125,18.5546875,-7.446288585662842,58.776851654052734
-0.200927734375,-0.5045166015625,-0.0631103515625,-0.6713866591453552,-1.15966796875,28.991697311401367
-0.0728759765625,-0.31884765625,0.0242919921875,9.46044921875,10.070799827575684,-13.732909202575684
-0.0960693359375,-0.32763671875,-0.0218505859375,48.828121185302734,16.78466796875,-27.832029342651367
-0.12744140625,-0.486083984375,-0.0799560546875,38.87939453125,17.2119140625,-29.846189498901367
-0.280517578125,-0.45263671875,-0.0223388671875,39.4287109375,16.17431640625,-27.282712936401367
-0.4122314453125,-0.4949951171875,-0.1033935546875,39.9169921875,15.380858421325684,-11.474608421325684
-0.48681640625,-0.4661865234375,-0.1119384765625,-4.0283203125,7.263183116912842,-2.0751953125
-0.6099853515625,-0.578125,-0.15966796875,-1.2817381620407104,7.324218273162842,5.615233898162842
-0.719970703125,-0.5777587890625,-0.2298583984375,-18.1884765625,5.371093273162842,9.21630859375
-0.789306640625,-0.6544189453125,-0.202392578125,-12.817381858825684,6.042479991912842,8.97216796875
-0.830078125,-0.604248046875,-0.2437744140625,-6.591796398162842,0.1831054538488388,4.638671875
-0.81787109375,-0.6617431640625,-0.2188720703125,-3.540038824081421,-1.4038084745407104,0.54931640625
-0.802978515625,-0.62890625,-0.2689208984375,5.249022960662842,-0.4272460639476776,-1.7089842557907104
-0.7947998046875,-0.6357421875,-0.248291015625,0.6103515625,1.2817381620407104,-2.990722417831421
-0.7637939453125,-0.60986328125,-0.20849609375,3.601073980331421,4.21142578125,-1.3427733182907104
-0.69580078125,-0.56640625,-0.1932373046875,1.220703125,3.845214605331421,-2.3193359375
-0.6456298828125,-0.5404052734375,-0.1612548828125,-3.479003667831421,1.2817381620407104,-3.356933355331421
-0.6051025390625,-0.5531005859375,-0.170654296875,0.1831054538488388,0.30517578125,-1.3427733182907104
-0.5648193359375,-0.5125732421875,-0.1383056640625,-7.080077648162842,-2.746581792831421,0.6713866591453552
-0.5255126953125,-0.484619140625,-0.1575927734375,-9.46044921875,-6.286620616912842,1.5258787870407104
-0.5579833984375,-0.537109375,-0.1158447265625,-12.451170921325684,-6.835937023162842,1.6479490995407104
-0.5826416015625,-0.428466796875,-0.2584228515625,3.662109136581421,-6.530761241912842,1.03759765625
-0.6622314453125,-0.5872802734375,-0.1654052734375,-26.245115280151367,-10.864256858825684,-4.0283203125
-0.6475830078125,-0.5650634765625,-0.314697265625,5.615233898162842,-9.46044921875,-11.169432640075684
-0.7772216796875,-0.68359375,-0.2109375,-16.2353515625,-8.7890625,-21.850584030151367
-0.7003173828125,-0.607177734375,-0.218017578125,-0.9155272841453552,-10.681151390075684,-24.963376998901367
-0.78125,-0.5921630859375,-0.1900634765625,-24.902341842651367,-12.512206077575684,-31.311033248901367
-0.768798828125,-0.66259765625,-0.2076416015625,-17.63916015625,-16.4794921875,-27.709959030151367
-0.8824462890625,-0.599853515625,-0.21875,-35.888671875,-7.202147960662842,-39.306640625
-0.789306640625,-0.7259521484375,-0.280517578125,-33.99658203125,-15.624999046325684,-25.634763717651367
-0.9486083984375,-0.4947509765625,-0.0987548828125,-37.841796875,-7.141112804412842,-41.870113372802734
-0.7728271484375,-0.6043701171875,-0.28515625,-18.85986328125,-9.8876953125,-22.399900436401367
-0.94140625,-0.5367431640625,-0.183349609375,-23.315427780151367,-7.385253429412842,-27.465818405151367
-0.8057861328125,-0.557373046875,-0.1927490234375,-5.981444835662842,-2.44140625,-21.423337936401367
-1.0367431640625,-0.537353515625,-0.24560546875,-12.329100608825684,8.6669921875,-27.160642623901367
-0.8802490234375,-0.569580078125,-0.3087158203125,0.30517578125,10.437010765075684,-20.996091842651367
-0.95947265625,-0.4150390625,-0.1058349609375,-8.48388671875,10.864256858825684,-20.507810592651367
-0.951416015625,-0.464111328125,-0.212646484375,4.82177734375,14.709471702575684,-18.49365234375
-0.885986328125,-0.4525146484375,-0.1884765625,-4.45556640625,10.375975608825684,-23.681638717651367
-1.0469970703125,-0.400146484375,-0.13232421875,4.94384765625,14.465331077575684,-25.939939498901367
-0.9251708984375,-0.400634765625,-0.1904296875,-0.7934569716453552,12.817381858825684,-23.925779342651367
-0.973388671875,-0.3695068359375,-0.2066650390625,-6.835937023162842,6.530761241912842,-23.742673873901367
-1.002685546875,-0.356201171875,-0.1378173828125,-9.58251953125,1.7700194120407104,-22.766111373901367
-0.9488525390625,-0.2764892578125,-0.099609375,3.967284917831421,2.624511480331421,-23.986814498901367
-0.9365234375,-0.3619384765625,-0.21923828125,2.807616949081421,0.6713866591453552,-25.390623092651367
-0.94580078125,-0.30810546875,-0.1500244140625,-7.019042491912842,-2.0751953125,-32.04345703125
-0.9676513671875,-0.280029296875,-0.1754150390625,4.7607421875,-3.234863042831421,-33.5693359375
-1.0089111328125,-0.246337890625,-0.1611328125,3.723144292831421,-3.479003667831421,-37.109375
-0.9783935546875,-0.2197265625,-0.18115234375,2.990722417831421,-1.15966796875,-35.15625
-0.9732666015625,-0.24072265625,-0.16357421875,0.6713866591453552,-1.220703125,-34.0576171875
-0.98095703125,-0.2215576171875,-0.1417236328125,-4.21142578125,0.7324218153953552,-32.5927734375
-1.0020751953125,-0.255126953125,-0.1435546875,-9.1552734375,-1.220703125,-24.841306686401367
-1.0531005859375,-0.2308349609375,-0.1436767578125,-17.4560546875,-3.967284917831421,-15.197752952575684
-1.0394287109375,-0.1905517578125,-0.115234375,-23.437498092651367,-4.08935546875,-6.652831554412842
-1.01708984375,-0.2164306640625,-0.126708984375,-22.338865280151367,-4.57763671875,-0.0610351525247097
-1.0054931640625,-0.2105712890625,-0.1253662109375,-17.7001953125,-4.39453125,1.3427733182907104
-0.9918212890625,-0.215087890625,-0.138916015625,-8.36181640625,-1.15966796875,2.868652105331421
-0.9752197265625,-0.2120361328125,-0.1357421875,-2.13623046875,0.2441406100988388,4.0283203125
-0.9775390625,-0.213623046875,-0.1241455078125,4.82177734375,1.5869139432907104,4.82177734375
-0.968017578125,-0.21435546875,-0.130859375,12.451170921325684,2.50244140625,4.69970703125
-0.9556884765625,-0.2052001953125,-0.1290283203125,13.244627952575684,3.417968511581421,6.347655773162842
-0.955810546875,-0.212158203125,-0.1248779296875,10.253905296325684,3.356933355331421,7.263183116912842
-0.9659423828125,-0.213134765625,-0.133544921875,9.33837890625,3.234863042831421,6.774901866912842
-0.962890625,-0.211669921875,-0.1370849609375,6.042479991912842,3.173827886581421,5.493163585662842
-0.9625244140625,-0.2174072265625,-0.1348876953125,2.0751953125,3.112792730331421,3.540038824081421
-0.967529296875,-0.208984375,-0.1378173828125,0.4882812201976776,2.50244140625,1.9531248807907104
-0.9727783203125,-0.2122802734375,-0.1378173828125,-0.1220703050494194,2.197265625,0.9155272841453552
-0.970947265625,-0.2203369140625,-0.1348876953125,-0.8544921278953552,1.6479490995407104,0.0
-0.9776611328125,-0.2098388671875,-0.1343994140625,-0.4272460639476776,2.0751953125,0.9765624403953552
-0.9693603515625,-0.210205078125,-0.13671875,0.6103515625,2.13623046875,2.38037109375
-0.9617919921875,-0.217529296875,-0.1409912109375,1.7089842557907104,1.4648436307907104,1.4038084745407104
-0.9696044921875,-0.2254638671875,-0.1314697265625,3.051757574081421,2.13623046875,-0.8544921278953552
-0.974609375,-0.2266845703125,-0.1356201171875,2.44140625,1.7089842557907104,-2.685546636581421
-0.9715576171875,-0.2183837890625,-0.126220703125,1.3427733182907104,0.8544921278953552,-2.38037109375
-0.9742431640625,-0.216796875,-0.1387939453125,0.54931640625,0.1220703050494194,-1.5258787870407104
-0.9788818359375,-0.2218017578125,-0.1314697265625,-0.7324218153953552,0.0610351525247097,-0.9765624403953552
-0.9681396484375,-0.217529296875,-0.1256103515625,-0.30517578125,0.30517578125,-0.9155272841453552
-0.952880859375,-0.2225341796875,-0.1265869140625,2.624511480331421,0.1831054538488388,-1.5869139432907104
-0.953369140625,-0.22412109375,-0.1163330078125,3.417968511581421,0.1220703050494194,-2.563476324081421
-0.957275390625,-0.22119140625,-0.1248779296875,1.7700194120407104,0.30517578125,-2.807616949081421
-0.9697265625,-0.2264404296875,-0.1220703125,0.3662109076976776,0.6103515625,-2.01416015625
-0.9794921875,-0.2210693359375,-0.1220703125,0.7324218153953552,0.9155272841453552,-1.7089842557907104
-0.9759521484375,-0.225830078125,-0.1219482421875,-0.1220703050494194,1.220703125,-1.4648436307907104
-0.9873046875,-0.2254638671875,-0.1220703125,-0.9765624403953552,1.9531248807907104,-1.2817381620407104
-0.9854736328125,-0.215576171875,-0.1312255859375,1.2817381620407104,2.563476324081421,-0.6103515625
-0.9813232421875,-0.221923828125,-0.1170654296875,2.563476324081421,2.44140625,-0.54931640625
-0.9588623046875,-0.2120361328125,-0.1124267578125,5.676269054412842,1.8920897245407104,-0.3662109076976776
-0.9410400390625,-0.219970703125,-0.1175537109375,5.126952648162842,1.5258787870407104,-0.2441406100988388
-0.9407958984375,-0.2177734375,-0.107666015625,2.3193359375,1.4648436307907104,-0.4272460639476776
-0.950927734375,-0.22314453125,-0.111083984375,1.9531248807907104,1.6479490995407104,-0.9765624403953552
-0.96240234375,-0.2178955078125,-0.1126708984375,3.417968511581421,1.7089842557907104,-1.2817381620407104
