aX,aY,aZ,gX,gY,gZ
1.6148681640625,0.2293701171875,0.853515625,-42.297359466552734,13.732909202575684,23.986814498901367
1.8475341796875,0.37158203125,0.8868408203125,-76.23291015625,36.68212890625,44.616695404052734
1.71337890625,0.2921142578125,0.7801513671875,-103.14940643310547,48.217769622802734,41.687007904052734
1.54541015625,0.2469482421875,0.650390625,-77.69775390625,54.687496185302734,28.442380905151367
1.3935546875,0.23193359375,0.441162109375,-46.813961029052734,35.2783203125,-0.3662109076976776
1.0045166015625,0.04443359375,0.3658447265625,-25.146482467651367,4.8828125,-42.114253997802734
0.664306640625,-0.0260009765625,0.433837890625,2.44140625,-20.263669967651367,-75.439453125
0.37060546875,-0.0089111328125,0.331298828125,11.169432640075684,-35.94970703125,-103.69872283935547
0.09375,-0.120849609375,0.2078857421875,2.563476324081421,-47.973628997802734,-126.89208221435547
-0.111572265625,-0.0560302734375,0.25048828125,7.934569835662842,-46.081539154052734,-118.65233612060547
0.123291015625,-0.1068115234375,0.1324462890625,5.737304210662842,-29.846189498901367,-74.5849609375
0.3936767578125,-0.040771484375,0.2802734375,-9.46044921875,-14.221190452575684,-30.456541061401367
0.66162109375,-0.0660400390625,0.416259765625,-0.30517578125,3.723144292831421,2.929687261581421
0.837890625,-0.0843505859375,0.3726806640625,-5.615233898162842,6.225585460662842,15.258788108825684
0.8486328125,-0.0640869140625,0.475341796875,-14.221190452575684,3.601073980331421,15.441893577575684
0.839599609375,-0.09521484375,0.416259765625,-5.737304210662842,4.638671875,10.437010765075684
0.837646484375,-0.0523681640625,0.4251708984375,-8.7890625,1.6479490995407104,9.1552734375
0.7447509765625,-0.0216064453125,0.4158935546875,-3.295898199081421,2.50244140625,12.695311546325684
0.7109375,-0.0340576171875,0.3841552734375,2.38037109375,7.934569835662842,25.146482467651367
0.6348876953125,-0.0030517578125,0.3883056640625,-8.97216796875,11.474608421325684,38.14697265625
0.5301513671875,0.0113525390625,0.3609619140625,8.48388671875,27.587888717651367,55.603023529052734
0.5899658203125,-0.0260009765625,0.3541259765625,8.97216796875,29.602048873901367,65.5517578125
0.421875,0.041015625,0.419921875,9.765625,42.663570404052734,72.44873046875
0.8533935546875,0.0076904296875,0.1114501953125,42.968746185302734,37.353515625,81.78710174560547
0.54345703125,0.1771240234375,0.4903564453125,3.417968511581421,30.090330123901367,63.354488372802734
0.89697265625,-0.000732421875,0.2459716796875,26.855466842651367,40.0390625,56.518550872802734
0.8192138671875,0.062255859375,0.411376953125,14.282225608825684,22.460935592651367,57.922359466552734
0.886962890625,0.156494140625,0.30029296875,27.160642623901367,32.28759765625,36.9873046875
1.00537109375,0.11328125,0.3553466796875,17.88330078125,16.4794921875,36.92626953125
1.080810546875,0.239990234375,0.3035888671875,13.000487327575684,17.27294921875,18.1884765625
1.1162109375,0.1824951171875,0.3271484375,11.596678733825684,11.291502952575684,13.793944358825684
1.1036376953125,0.26953125,0.3348388671875,12.268065452575684,13.549803733825684,1.8920897245407104
1.15283203125,0.208251953125,0.2685546875,39.1845703125,4.33349609375,9.70458984375
1.03759765625,0.308837890625,0.3736572265625,42.968746185302734,1.3427733182907104,1.5258787870407104
1.1309814453125,0.1917724609375,0.2274169921875,60.668941497802734,-3.967284917831421,1.4038084745407104
1.0030517578125,0.271240234375,0.4449462890625,47.302242279052734,-7.019042491912842,-0.0610351525247097
1.109619140625,0.268798828125,0.28759765625,52.001949310302734,-8.72802734375,-3.173827886581421
1.041748046875,0.290771484375,0.437744140625,30.883787155151367,-14.709471702575684,3.906249761581421
1.025146484375,0.29052734375,0.4346923828125,30.212400436401367,-10.803221702575684,-0.1220703050494194
1.0638427734375,0.203125,0.3238525390625,29.968259811401367,-12.207030296325684,2.685546636581421
0.9749755859375,0.2689208984375,0.4573974609375,23.559568405151367,-13.793944358825684,2.3193359375
1.0115966796875,0.245361328125,0.4212646484375,22.277830123901367,-10.559081077575684,-1.15966796875
0.968994140625,0.1951904296875,0.3944091796875,15.869139671325684,-10.925292015075684,-0.54931640625
0.9310302734375,0.2135009765625,0.4840087890625,3.906249761581421,-9.1552734375,0.30517578125
0.929443359375,0.1898193359375,0.4085693359375,-2.0751953125,-3.356933355331421,-1.8310545682907104
0.91015625,0.161376953125,0.39453125,-8.85009765625,-3.540038824081421,-3.417968511581421
0.877197265625,0.1571044921875,0.4501953125,-8.6669921875,-1.15966796875,-3.173827886581421
0.8876953125,0.155517578125,0.3978271484375,0.1220703050494194,0.54931640625,-2.13623046875
0.89501953125,0.1650390625,0.3753662109375,0.8544921278953552,-1.7700194120407104,-2.929687261581421
0.8785400390625,0.14990234375,0.4527587890625,-5.676269054412842,-1.2817381620407104,-2.38037109375
0.886474609375,0.1260986328125,0.445556640625,-5.615233898162842,2.990722417831421,0.2441406100988388
0.9111328125,0.1873779296875,0.3665771484375,0.9155272841453552,2.50244140625,1.15966796875
0.888671875,0.197998046875,0.3961181640625,-5.310058116912842,-1.15966796875,-1.6479490995407104
0.885498046875,0.1553955078125,0.41015625,-3.295898199081421,-2.563476324081421,-2.50244140625
0.8818359375,0.168212890625,0.4185791015625,3.906249761581421,-0.4882812201976776,-2.13623046875
0.8868408203125,0.1756591796875,0.37646484375,-3.295898199081421,-1.3427733182907104,-5.0048828125
0.883056640625,0.1453857421875,0.4244384765625,-3.662109136581421,-1.2817381620407104,-4.82177734375
0.8846435546875,0.1461181640625,0.4091796875,1.5869139432907104,-0.7324218153953552,-3.112792730331421
0.8941650390625,0.1492919921875,0.4036865234375,3.417968511581421,-2.25830078125,-2.929687261581421
0.88720703125,0.142822265625,0.4334716796875,0.4882812201976776,-3.540038824081421,-1.2817381620407104
0.891845703125,0.148681640625,0.432373046875,-0.2441406100988388,-2.13623046875,0.4272460639476776
0.8951416015625,0.161865234375,0.4052734375,-0.7934569716453552,-1.4648436307907104,-0.7324218153953552
0.886962890625,0.1533203125,0.4241943359375,-4.150390625,-0.9765624403953552,-0.6713866591453552
0.8890380859375,0.15625,0.4112548828125,-1.7089842557907104,0.2441406100988388,-0.3662109076976776
0.8890380859375,0.1697998046875,0.3966064453125,2.25830078125,-0.30517578125,-0.6713866591453552
0.8836669921875,0.1622314453125,0.414306640625,-0.3662109076976776,-0.6713866591453552,-2.929687261581421
0.8922119140625,0.1416015625,0.4171142578125,0.7934569716453552,0.4882812201976776,-1.5869139432907104
0.888427734375,0.161376953125,0.4156494140625,-0.1220703050494194,0.9155272841453552,-1.4648436307907104
0.8916015625,0.150146484375,0.41552734375,-1.15966796875,0.54931640625,-1.03759765625
0.89306640625,0.153564453125,0.4166259765625,0.54931640625,0.6713866591453552,-0.0610351525247097
0.8912353515625,0.15576171875,0.411376953125,0.9765624403953552,0.4272460639476776,0.1220703050494194
0.88525390625,0.1549072265625,0.4134521484375,0.30517578125,-0.0610351525247097,-0.7324218153953552
0.8790283203125,0.1490478515625,0.4254150390625,-0.7934569716453552,0.54931640625,-1.7700194120407104
0.8848876953125,0.1566162109375,0.4144287109375,-0.54931640625,0.9765624403953552,-0.4272460639476776
0.8929443359375,0.171142578125,0.3978271484375,0.8544921278953552,-0.54931640625,-1.8310545682907104
0.8900146484375,0.1558837890625,0.417236328125,-0.4882812201976776,-1.5258787870407104,-2.929687261581421
0.890869140625,0.146728515625,0.4295654296875,-1.220703125,-1.0986328125,-2.01416015625
0.888916015625,0.1568603515625,0.4183349609375,0.4882812201976776,0.2441406100988388,-1.2817381620407104
0.8919677734375,0.1553955078125,0.40771484375,0.2441406100988388,-0.1220703050494194,-1.5869139432907104
0.8880615234375,0.1475830078125,0.4219970703125,-1.0986328125,-0.0610351525247097,-1.7700194120407104
0.8902587890625,0.15185546875,0.4232177734375,0.9765624403953552,0.6103515625,0.0610351525247097
0.892578125,0.156494140625,0.40673828125,-0.1831054538488388,0.6103515625,-0.4272460639476776
0.892822265625,0.148193359375,0.421630859375,-0.7324218153953552,0.54931640625,-0.1831054538488388
0.889404296875,0.1519775390625,0.421630859375,-0.2441406100988388,1.03759765625,0.2441406100988388
0.891845703125,0.1575927734375,0.4019775390625,1.4648436307907104,0.7934569716453552,-0.6103515625
0.8848876953125,0.1505126953125,0.4200439453125,-0.3662109076976776,0.1220703050494194,-1.15966796875
0.885009765625,0.1468505859375,0.417236328125,-0.3662109076976776,0.3662109076976776,-0.9155272841453552
0.8870849609375,0.150390625,0.40771484375,0.7934569716453552,0.4272460639476776,-1.03759765625
0.8900146484375,0.1453857421875,0.415283203125,-0.7934569716453552,-0.1220703050494194,-1.3427733182907104
0.8885498046875,0.1463623046875,0.422119140625,0.3662109076976776,0.4272460639476776,-0.1831054538488388
0.8916015625,0.1527099609375,0.4031982421875,0.9155272841453552,0.1831054538488388,-0.6103515625
0.891845703125,0.142578125,0.414306640625,0.0,0.30517578125,-0.7324218153953552
0.891845703125,0.15087890625,0.41796875,-0.0610351525247097,0.6103515625,-0.1220703050494194
0.8897705078125,0.1553955078125,0.4141845703125,0.4272460639476776,0.3662109076976776,-0.1831054538488388
0.8865966796875,0.1573486328125,0.4073486328125,-0.1220703050494194,-0.2441406100988388,-0.54931640625
0.8929443359375,0.1490478515625,0.408203125,-0.30517578125,-0.2441406100988388,-1.15966796875
0.890869140625,0.1544189453125,0.4202880859375,0.54931640625,0.1831054538488388,-1.5258787870407104
0.8934326171875,0.158203125,0.4141845703125,0.8544921278953552,-0.1831054538488388,-0.54931640625
0.894775390625,0.1500244140625,0.4053955078125,-0.6713866591453552,-0.4272460639476776,-1.220703125
0.8873291015625,0.1436767578125,0.4283447265625,0.30517578125,-0.1220703050494194,-0.0610351525247097
1.5579833984375,0.424560546875,0.6417236328125,-65.73486328125,18.61572265625,31.799314498901367
1.741455078125,0.6534423828125,0.715087890625,-107.23876190185547,30.761716842651367,48.767086029052734
1.7998046875,0.5499267578125,0.51513671875,-119.50682830810547,45.104976654052734,43.518062591552734
1.6119384765625,0.4703369140625,0.3524169921875,-97.90038299560547,37.4755859375,23.193357467651367
1.240234375,0.312255859375,0.3079833984375,-73.42529296875,14.099120140075684,-16.9677734375
0.9410400390625,0.1390380859375,0.152587890625,-26.672361373901367,-16.05224609375,-51.635738372802734
0.653564453125,0.1075439453125,0.1673583984375,-18.37158203125,-47.180171966552734,-83.06884002685547
0.36865234375,0.0350341796875,0.170654296875,-7.873534679412842,-62.988277435302734,-113.83055877685547
0.1356201171875,-0.0316162109375,0.2452392578125,-6.469726085662842,-70.00732421875,-126.77001190185547
0.0362548828125,-0.02197265625,0.2230224609375,3.356933355331421,-62.744136810302734,-130.92041015625
0.218994140625,-0.09228515625,0.108154296875,10.742186546325684,-46.997066497802734,-107.48290252685547
0.3223876953125,-0.0367431640625,0.2039794921875,-30.639646530151367,-38.02490234375,-71.77734375
0.56494140625,0.0865478515625,0.3126220703125,-10.314940452575684,-10.925292015075684,-23.376462936401367
0.783447265625,0.0538330078125,0.29052734375,1.4648436307907104,0.1220703050494194,1.0986328125
0.86279296875,-0.0091552734375,0.3516845703125,8.23974609375,2.685546636581421,10.192870140075684
0.845458984375,-0.001708984375,0.427978515625,1.4648436307907104,1.220703125,14.770506858825684
0.8896484375,-0.019287109375,0.3760986328125,3.417968511581421,0.9155272841453552,15.624999046325684
0.8621826171875,-0.00634765625,0.39501953125,-1.03759765625,2.197265625,14.282225608825684
0.88720703125,-0.0074462890625,0.4102783203125,-4.82177734375,0.4272460639476776,17.63916015625
0.7779541015625,0.018310546875,0.376953125,7.263183116912842,7.324218273162842,21.240232467651367
0.8026123046875,0.0045166015625,0.3194580078125,8.4228515625,8.7890625,33.935546875
0.7081298828125,0.0894775390625,0.335205078125,7.202147960662842,11.779784202575684,37.59765625
0.6961669921875,0.041015625,0.365478515625,9.58251953125,18.310546875,50.109859466552734
0.6905517578125,0.0826416015625,0.298095703125,11.901854515075684,25.939939498901367,55.786128997802734
0.7218017578125,0.0950927734375,0.3116455078125,14.648436546325684,30.639646530151367,61.218257904052734
0.7958984375,0.105712890625,0.2457275390625,17.27294921875,32.958984375,53.894039154052734
0.754150390625,0.10693359375,0.4027099609375,3.540038824081421,28.503416061401367,52.795406341552734
0.8773193359375,0.1458740234375,0.2467041015625,28.991697311401367,33.3251953125,47.729488372802734
0.83056640625,0.159912109375,0.37060546875,25.451658248901367,22.399900436401367,47.912593841552734
0.95263671875,0.2122802734375,0.1881103515625,30.090330123901367,21.728513717651367,36.0107421875
0.917236328125,0.24462890625,0.39453125,17.02880859375,9.27734375,37.7197265625
0.919677734375,0.237060546875,0.2025146484375,13.977049827575684,16.9677734375,22.766111373901367
1.0531005859375,0.1846923828125,0.202392578125,24.047849655151367,4.45556640625,28.686521530151367
0.802734375,0.3448486328125,0.3665771484375,5.310058116912842,4.0283203125,12.023924827575684
1.0240478515625,0.2572021484375,0.1898193359375,25.817869186401367,4.8828125,7.385253429412842
0.9346923828125,0.316162109375,0.3760986328125,8.72802734375,3.601073980331421,0.2441406100988388
1.048828125,0.299560546875,0.306884765625,19.53125,5.981444835662842,-1.15966796875
1.0357666015625,0.3275146484375,0.3365478515625,20.629880905151367,4.150390625,-3.845214605331421
1.0030517578125,0.3330078125,0.32958984375,27.160642623901367,2.929687261581421,-3.845214605331421
1.0538330078125,0.2933349609375,0.2880859375,34.72900390625,-3.784179449081421,-7.690429210662842
1.0028076171875,0.2962646484375,0.370849609375,36.376953125,-6.408690929412842,-2.868652105331421
1.0235595703125,0.29638671875,0.33544921875,37.41455078125,-6.591796398162842,-5.432128429412842
1.02294921875,0.2625732421875,0.3394775390625,28.686521530151367,-9.033203125,-2.563476324081421
0.9610595703125,0.276123046875,0.354736328125,26.306150436401367,-9.033203125,-5.737304210662842
0.9476318359375,0.2496337890625,0.3505859375,29.235837936401367,-11.108397483825684,-4.638671875
0.9315185546875,0.239990234375,0.3402099609375,33.87451171875,-13.793944358825684,-5.737304210662842
0.9107666015625,0.2313232421875,0.375732421875,29.663084030151367,-14.892577171325684,-7.446288585662842
0.9144287109375,0.207275390625,0.3670654296875,33.935546875,-14.099120140075684,-11.108397483825684
0.9461669921875,0.2314453125,0.3980712890625,28.320310592651367,-12.207030296325684,-11.413573265075684
0.946044921875,0.238525390625,0.4417724609375,24.536130905151367,-6.896972179412842,-13.793944358825684
0.993408203125,0.1724853515625,0.4141845703125,19.04296875,-9.1552734375,-8.30078125
0.89208984375,0.18505859375,0.4886474609375,22.460935592651367,-6.225585460662842,-8.60595703125
0.9302978515625,0.180419921875,0.4237060546875,14.404295921325684,-6.347655773162842,-11.108397483825684
0.93359375,0.1639404296875,0.4384765625,8.85009765625,-8.48388671875,-9.94873046875
0.928466796875,0.164306640625,0.4847412109375,-2.38037109375,-7.019042491912842,-10.925292015075684
0.944580078125,0.117919921875,0.43896484375,-1.4038084745407104,-5.615233898162842,-8.60595703125
0.912353515625,0.1282958984375,0.4686279296875,-3.234863042831421,-5.310058116912842,-3.662109136581421
0.8936767578125,0.1163330078125,0.4521484375,-0.30517578125,-2.197265625,-3.173827886581421
0.8883056640625,0.1065673828125,0.4295654296875,-2.50244140625,-1.9531248807907104,-1.8920897245407104
0.86865234375,0.1031494140625,0.4622802734375,-1.7700194120407104,0.3662109076976776,-0.8544921278953552
0.879638671875,0.1031494140625,0.435302734375,1.6479490995407104,2.01416015625,0.30517578125
0.8741455078125,0.132568359375,0.4403076171875,-1.4648436307907104,1.03759765625,-0.7324218153953552
0.874755859375,0.1173095703125,0.4447021484375,-2.50244140625,0.0610351525247097,-2.3193359375
0.88330078125,0.1021728515625,0.457763671875,-0.6103515625,0.1831054538488388,-1.5869139432907104
0.877685546875,0.13427734375,0.442138671875,2.807616949081421,0.3662109076976776,-1.4648436307907104
0.8824462890625,0.11474609375,0.4339599609375,-1.15966796875,-1.5869139432907104,-2.685546636581421
0.8709716796875,0.093994140625,0.46044921875,-2.38037109375,-0.9765624403953552,-2.44140625
0.87548828125,0.098388671875,0.447509765625,-1.03759765625,0.4882812201976776,-2.563476324081421
0.8814697265625,0.1114501953125,0.4283447265625,-0.6713866591453552,-0.30517578125,-1.9531248807907104
0.8804931640625,0.10986328125,0.448974609375,-2.13623046875,-1.4648436307907104,-1.5869139432907104
0.8829345703125,0.108154296875,0.4500732421875,0.1831054538488388,-1.220703125,-0.54931640625
0.8896484375,0.115478515625,0.4381103515625,1.03759765625,-0.7934569716453552,-0.8544921278953552
0.8819580078125,0.117919921875,0.4425048828125,-1.15966796875,-0.4272460639476776,-2.3193359375
0.879638671875,0.115478515625,0.44970703125,-0.7934569716453552,0.1831054538488388,-2.13623046875
0.8836669921875,0.1097412109375,0.4390869140625,-0.54931640625,-0.2441406100988388,-2.25830078125
0.87890625,0.1043701171875,0.4451904296875,1.2817381620407104,-0.6713866591453552,-1.7700194120407104
0.88134765625,0.1058349609375,0.44384765625,0.4882812201976776,-1.4038084745407104,-1.2817381620407104
0.8834228515625,0.10107421875,0.455078125,-1.220703125,-0.8544921278953552,-0.4272460639476776
0.8863525390625,0.1055908203125,0.4503173828125,-0.7934569716453552,-0.30517578125,0.4272460639476776
0.8865966796875,0.11328125,0.439697265625,-0.3662109076976776,-0.3662109076976776,-0.1220703050494194
0.8876953125,0.10546875,0.4478759765625,-0.4272460639476776,-0.54931640625,0.9765624403953552
0.8770751953125,0.112060546875,0.4547119140625,-0.1220703050494194,0.1220703050494194,0.4882812201976776
0.87255859375,0.1090087890625,0.4384765625,-0.7324218153953552,0.7324218153953552,-0.30517578125
0.879150390625,0.11279296875,0.4439697265625,-0.0610351525247097,0.54931640625,-0.7324218153953552
0.881103515625,0.112548828125,0.4478759765625,-0.0610351525247097,0.54931640625,-0.7934569716453552
0.8807373046875,0.107177734375,0.4437255859375,0.3662109076976776,0.54931640625,-1.4648436307907104
0.87890625,0.107666015625,0.451904296875,0.2441406100988388,0.6713866591453552,-1.15966796875
0.8787841796875,0.10498046875,0.441650390625,0.7934569716453552,-0.0610351525247097,-0.9155272841453552
0.8841552734375,0.1063232421875,0.4442138671875,0.4272460639476776,-0.3662109076976776,-0.54931640625
0.8779296875,0.11328125,0.4559326171875,-0.6103515625,-1.0986328125,-0.0610351525247097
0.8831787109375,0.1085205078125,0.4395751953125,-0.9765624403953552,-0.9155272841453552,-0.4272460639476776
0.8828125,0.115234375,0.4495849609375,-0.6713866591453552,-0.7324218153953552,-0.7324218153953552
0.8780517578125,0.1090087890625,0.4461669921875,-0.1831054538488388,-0.3662109076976776,-0.6713866591453552
0.8790283203125,0.1121826171875,0.446533203125,0.2441406100988388,-0.30517578125,-0.9155272841453552
0.87744140625,0.1063232421875,0.448486328125,0.1831054538488388,-0.1220703050494194,-0.7324218153953552
0.8818359375,0.1121826171875,0.445068359375,-0.4272460639476776,0.1220703050494194,-0.54931640625
0.87890625,0.1087646484375,0.4488525390625,-0.8544921278953552,0.30517578125,-0.7324218153953552
0.88134765625,0.1142578125,0.4520263671875,0.6713866591453552,0.30517578125,-0.4272460639476776
0.8792724609375,0.1170654296875,0.4400634765625,0.3662109076976776,-0.1831054538488388,-0.7934569716453552
0.8780517578125,0.112548828125,0.4483642578125,0.54931640625,-0.6713866591453552,-1.5869139432907104
1.5120849609375,0.4195556640625,0.7979736328125,-94.54344940185547,21.484373092651367,39.61181640625
1.7110595703125,0.580810546875,0.828857421875,-141.66259765625,46.447750091552734,54.443355560302734
1.7650146484375,0.5623779296875,0.4627685546875,-136.77978515625,63.659664154052734,57.250972747802734
1.572509765625,0.516845703125,0.397216796875,-119.14061737060547,52.124019622802734,33.0810546875
1.4483642578125,0.41455078125,0.262939453125,-81.78710174560547,25.268552780151367,-3.173827886581421
1.0169677734375,0.18701171875,0.3348388671875,-51.086421966552734,-1.8310545682907104,-47.119136810302734
0.74853515625,0.023681640625,0.162353515625,-11.535643577575684,-28.503416061401367,-80.99364471435547
0.429443359375,0.060791015625,0.06640625,18.1884765625,-55.175777435302734,-107.42186737060547
0.1429443359375,0.0245361328125,0.1337890625,5.493163585662842,-72.509765625,-132.75146484375
-0.078857421875,-0.0447998046875,0.2115478515625,11.474608421325684,-66.162109375,-136.71875
0.1080322265625,-0.0733642578125,0.0718994140625,19.287109375,-44.128414154052734,-107.84911346435547
0.37841796875,-0.06640625,0.1068115234375,-24.047849655151367,-31.372068405151367,-66.162109375
0.5677490234375,0.099365234375,0.275634765625,-13.793944358825684,-2.746581792831421,-14.099120140075684
0.8154296875,0.1396484375,0.199951171875,12.939452171325684,5.0048828125,12.268065452575684
0.8564453125,0.085693359375,0.25390625,10.314940452575684,3.295898199081421,22.644041061401367
0.906494140625,0.024169921875,0.33154296875,11.962889671325684,-1.7089842557907104,26.428220748901367
0.764404296875,0.0474853515625,0.374755859375,18.6767578125,0.0610351525247097,25.878904342651367
0.7174072265625,0.032958984375,0.29345703125,33.87451171875,8.056640625,47.912593841552734
0.6925048828125,0.1497802734375,0.197265625,30.944822311401367,9.521484375,56.518550872802734
0.6007080078125,0.1011962890625,0.23876953125,25.146482467651367,13.061522483825684,62.744136810302734
0.5645751953125,0.086181640625,0.2711181640625,16.2353515625,21.545408248901367,72.75390625
0.6728515625,0.1151123046875,0.275634765625,13.427733421325684,23.986814498901367,75.13427734375
0.6015625,0.191162109375,0.344970703125,18.310546875,32.958984375,73.54736328125
0.86572265625,0.14599609375,0.1688232421875,18.1884765625,29.602048873901367,67.0166015625
0.7481689453125,0.2025146484375,0.324951171875,-0.30517578125,26.489255905151367,51.757808685302734
0.9151611328125,0.225341796875,0.3421630859375,4.45556640625,18.61572265625,45.959468841552734
0.8853759765625,0.28173828125,0.3155517578125,10.131834983825684,18.00537109375,30.822751998901367
1.0272216796875,0.2783203125,0.3060302734375,12.451170921325684,9.27734375,27.343748092651367
0.975341796875,0.375244140625,0.3197021484375,0.8544921278953552,6.591796398162842,14.038084983825684
1.0574951171875,0.3516845703125,0.250244140625,16.90673828125,8.30078125,2.38037109375
1.049072265625,0.403564453125,0.339111328125,1.7700194120407104,3.784179449081421,-6.652831554412842
1.0599365234375,0.377197265625,0.3441162109375,12.695311546325684,6.408690929412842,-10.742186546325684
1.04443359375,0.345458984375,0.30712890625,11.047362327575684,-0.0610351525247097,-15.075682640075684
1.0120849609375,0.3270263671875,0.249755859375,9.70458984375,-3.601073980331421,-22.216794967651367
1.029052734375,0.324462890625,0.317626953125,12.145995140075684,-7.934569835662842,-28.320310592651367
1.068115234375,0.2694091796875,0.2769775390625,20.141599655151367,-9.82666015625,-25.146482467651367
1.0377197265625,0.2919921875,0.3369140625,19.83642578125,-12.329100608825684,-24.780271530151367
1.0185546875,0.236572265625,0.2861328125,18.9208984375,-13.061522483825684,-26.184080123901367
1.0262451171875,0.2159423828125,0.3753662109375,12.756346702575684,-14.038084983825684,-20.141599655151367
0.959716796875,0.178955078125,0.3448486328125,16.11328125,-8.60595703125,-21.972654342651367
1.021240234375,0.1724853515625,0.3365478515625,14.221190452575684,-7.629394054412842,-15.686034202575684
0.919921875,0.174560546875,0.3779296875,10.742186546325684,-5.615233898162842,-19.34814453125
1.017822265625,0.135009765625,0.2862548828125,16.845703125,-4.82177734375,-16.6015625
0.9674072265625,0.189697265625,0.3455810546875,12.939452171325684,-8.544921875,-14.099120140075684
0.994384765625,0.1568603515625,0.35498046875,16.05224609375,-5.920409679412842,-14.099120140075684
0.9991455078125,0.147216796875,0.35107421875,13.732909202575684,-5.310058116912842,-9.1552734375
0.9925537109375,0.150146484375,0.3614501953125,11.901854515075684,-5.615233898162842,-9.1552734375
0.9949951171875,0.14990234375,0.3570556640625,6.469726085662842,-5.676269054412842,-5.676269054412842
0.972900390625,0.1427001953125,0.3609619140625,1.6479490995407104,-5.798339366912842,-6.835937023162842
0.9564208984375,0.107177734375,0.359130859375,-1.15966796875,-4.21142578125,-5.859374523162842
0.93798828125,0.1051025390625,0.3841552734375,-2.624511480331421,-2.746581792831421,-4.69970703125
0.9281005859375,0.08544921875,0.3577880859375,0.6713866591453552,-1.9531248807907104,-4.45556640625
0.9173583984375,0.0882568359375,0.3663330078125,-0.1831054538488388,-3.051757574081421,-3.173827886581421
0.9073486328125,0.0623779296875,0.381591796875,0.0610351525247097,-1.4648436307907104,-1.7089842557907104
0.9073486328125,0.0755615234375,0.3800048828125,2.13623046875,0.1831054538488388,-0.4272460639476776
0.908447265625,0.085693359375,0.365966796875,1.03759765625,0.1831054538488388,-0.8544921278953552
0.9139404296875,0.0848388671875,0.3798828125,0.30517578125,0.7934569716453552,-0.9155272841453552
0.9190673828125,0.091064453125,0.3800048828125,1.7700194120407104,1.0986328125,-1.0986328125
0.9193115234375,0.0887451171875,0.3753662109375,0.7934569716453552,0.54931640625,-1.8310545682907104
0.9188232421875,0.0928955078125,0.3914794921875,0.0,-0.3662109076976776,-0.6103515625
0.91796875,0.0914306640625,0.3892822265625,-1.5869139432907104,-0.4882812201976776,-0.54931640625
0.9207763671875,0.093017578125,0.3702392578125,-0.9765624403953552,0.2441406100988388,-0.1831054538488388
0.921142578125,0.0968017578125,0.372314453125,-2.624511480331421,-0.6713866591453552,-0.7324218153953552
0.9168701171875,0.083984375,0.3795166015625,-1.6479490995407104,-0.0610351525247097,0.0
0.9129638671875,0.0948486328125,0.3603515625,-1.0986328125,-0.0610351525247097,-0.8544921278953552
0.905517578125,0.08935546875,0.3653564453125,-0.7324218153953552,0.0610351525247097,-1.0986328125
0.9130859375,0.0927734375,0.3692626953125,-0.6103515625,0.0610351525247097,-0.9155272841453552
0.9141845703125,0.0855712890625,0.36767578125,-0.7324218153953552,-0.30517578125,-1.8920897245407104
0.9141845703125,0.0916748046875,0.3759765625,1.0986328125,0.30517578125,-1.0986328125
0.9205322265625,0.09375,0.3626708984375,1.03759765625,0.30517578125,-1.3427733182907104
0.9197998046875,0.087158203125,0.3812255859375,0.6103515625,0.6103515625,-0.9765624403953552
0.916748046875,0.086181640625,0.37841796875,0.9765624403953552,1.5258787870407104,-0.3662109076976776
0.9189453125,0.10009765625,0.3673095703125,-0.54931640625,1.03759765625,-0.30517578125
0.915283203125,0.0908203125,0.3731689453125,-0.7324218153953552,0.6713866591453552,-0.30517578125
0.91650390625,0.0921630859375,0.36767578125,0.7934569716453552,0.6713866591453552,-0.2441406100988388
0.917724609375,0.0987548828125,0.3583984375,1.15966796875,-0.2441406100988388,-1.3427733182907104
0.9178466796875,0.0889892578125,0.375732421875,-0.3662109076976776,-0.7324218153953552,-1.15966796875
0.9168701171875,0.08984375,0.3634033203125,0.0610351525247097,-0.30517578125,-1.4648436307907104
0.9188232421875,0.091552734375,0.3680419921875,-0.3662109076976776,-0.54931640625,-1.3427733182907104
0.915771484375,0.086669921875,0.3690185546875,0.1831054538488388,-0.4882812201976776,-1.15966796875
0.9189453125,0.08740234375,0.3673095703125,0.3662109076976776,-0.2441406100988388,-1.3427733182907104
0.9212646484375,0.0867919921875,0.37451171875,0.3662109076976776,0.4882812201976776,-0.54931640625
0.9188232421875,0.0936279296875,0.3751220703125,-0.3662109076976776,0.9765624403953552,-0.2441406100988388
0.923095703125,0.082763671875,0.3656005859375,-0.4272460639476776,1.5869139432907104,0.1831054538488388
0.9141845703125,0.08203125,0.3782958984375,0.4882812201976776,1.6479490995407104,0.8544921278953552
0.9156494140625,0.091552734375,0.369873046875,1.15966796875,1.8920897245407104,2.01416015625
0.920166015625,0.0924072265625,0.3546142578125,-0.4272460639476776,0.9765624403953552,0.9155272841453552
0.920654296875,0.0931396484375,0.3690185546875,0.9765624403953552,0.4272460639476776,0.9155272841453552
0.918212890625,0.1026611328125,0.363037109375,-0.4882812201976776,-0.1220703050494194,-0.6713866591453552
0.9144287109375,0.10009765625,0.3621826171875,-0.2441406100988388,-1.15966796875,-1.3427733182907104
0.9134521484375,0.094970703125,0.3607177734375,-0.1831054538488388,-2.13623046875,-2.197265625
0.911376953125,0.0908203125,0.3673095703125,-0.30517578125,-2.197265625,-3.295898199081421
0.9149169921875,0.088623046875,0.3707275390625,0.8544921278953552,-1.8310545682907104,-3.234863042831421
0.91943359375,0.0872802734375,0.3731689453125,-0.3662109076976776,-1.4038084745407104,-2.38037109375
0.91748046875,0.08056640625,0.37451171875,-0.54931640625,-0.8544921278953552,-1.9531248807907104
0.9173583984375,0.08251953125,0.375244140625,0.6713866591453552,0.1831054538488388,-0.9765624403953552
0.9163818359375,0.0845947265625,0.3675537109375,0.8544921278953552,0.6103515625,-1.2817381620407104
0.91748046875,0.0865478515625,0.3701171875,1.4038084745407104,0.4272460639476776,-1.4038084745407104
0.9173583984375,0.0869140625,0.3753662109375,1.2817381620407104,0.4882812201976776,-1.4038084745407104
0.921142578125,0.085693359375,0.37109375,-0.30517578125,0.1220703050494194,-0.7934569716453552
1.6512451171875,0.453857421875,0.5748291015625,-89.35546112060547,10.681151390075684,42.175289154052734
1.736572265625,0.454833984375,0.6285400390625,-102.72216033935547,26.184080123901367,49.072261810302734
1.638916015625,0.348876953125,0.471923828125,-101.74559783935547,32.5927734375,37.841796875
1.441650390625,0.2679443359375,0.33251953125,-76.72119140625,19.4091796875,9.3994140625
1.1390380859375,0.2044677734375,0.2816162109375,-62.988277435302734,0.7934569716453552,-17.2119140625
0.957275390625,0.1158447265625,0.2259521484375,-44.006343841552734,-24.353025436401367,-62.561031341552734
0.61279296875,0.05419921875,0.322509765625,-24.291990280151367,-49.255367279052734,-96.86278533935547
0.1451416015625,-0.0140380859375,0.2576904296875,11.108397483825684,-54.016109466552734,-129.150390625
-0.00830078125,-0.0533447265625,0.071533203125,19.47021484375,-54.870601654052734,-136.962890625
-0.07958984375,-0.0604248046875,0.1014404296875,0.9765624403953552,-52.307125091552734,-122.25341033935547
0.20849609375,-0.04150390625,0.1451416015625,-13.305663108825684,-22.583005905151367,-70.1904296875
0.5164794921875,-0.015869140625,0.1458740234375,-2.563476324081421,0.1831054538488388,-7.873534679412842
0.823974609375,0.181640625,0.1373291015625,23.132322311401367,5.798339366912842,15.136717796325684
0.881591796875,0.0462646484375,0.2777099609375,25.817869186401367,3.723144292831421,17.88330078125
0.9017333984375,-0.00927734375,0.34912109375,21.179197311401367,0.2441406100988388,21.179197311401367
0.8404541015625,-0.0357666015625,0.3360595703125,12.451170921325684,-1.4648436307907104,18.24951171875
0.8114013671875,-0.0286865234375,0.351318359375,5.126952648162842,3.601073980331421,31.433103561401367
0.7403564453125,0.037841796875,0.2890625,0.7934569716453552,6.347655773162842,39.1845703125
0.7635498046875,0.0086669921875,0.2384033203125,1.5258787870407104,10.009765625,47.973628997802734
0.6729736328125,0.037109375,0.30908203125,0.54931640625,14.892577171325684,52.856441497802734
0.6524658203125,0.0113525390625,0.3182373046875,5.0048828125,25.329587936401367,65.85693359375
0.740478515625,0.0765380859375,0.2449951171875,19.95849609375,28.747556686401367,73.79150390625
0.64599609375,0.1185302734375,0.296875,9.8876953125,36.92626953125,70.6787109375
0.8170166015625,0.13037109375,0.19921875,13.061522483825684,37.59765625,62.011714935302734
0.7076416015625,0.157958984375,0.2501220703125,15.502928733825684,36.80419921875,54.443355560302734
0.977294921875,0.213134765625,0.1922607421875,19.775390625,24.414060592651367,46.874996185302734
0.7686767578125,0.2979736328125,0.35009765625,11.169432640075684,21.118162155151367,36.9873046875
1.1029052734375,0.227294921875,0.0977783203125,29.602048873901367,8.60595703125,31.616209030151367
0.8837890625,0.344970703125,0.3480224609375,-0.7324218153953552,0.2441406100988388,22.521970748901367
1.0989990234375,0.281494140625,0.1959228515625,16.29638671875,-2.13623046875,11.962889671325684
0.9725341796875,0.3388671875,0.353759765625,7.568358898162842,-8.23974609375,8.60595703125
1.0220947265625,0.3065185546875,0.2728271484375,26.306150436401367,-3.356933355331421,-1.03759765625
1.0343017578125,0.3070068359375,0.3148193359375,23.620603561401367,-10.070799827575684,0.6103515625
1.01123046875,0.384033203125,0.337158203125,20.446775436401367,-11.047362327575684,-5.065917491912842
1.064697265625,0.3148193359375,0.26416015625,26.245115280151367,-10.681151390075684,-13.427733421325684
1.038330078125,0.31982421875,0.3662109375,26.306150436401367,-15.991209983825684,-12.268065452575684
1.083740234375,0.3646240234375,0.3922119140625,38.57421875,-14.465331077575684,-17.39501953125
1.0299072265625,0.29052734375,0.34375,46.630855560302734,-14.770506858825684,-17.39501953125
0.97412109375,0.2838134765625,0.37744140625,35.400390625,-20.202634811401367,-23.498533248901367
1.0076904296875,0.2508544921875,0.3636474609375,42.968746185302734,-20.812986373901367,-25.390623092651367
0.963134765625,0.255126953125,0.426025390625,30.273435592651367,-24.047849655151367,-28.564451217651367
1.00732421875,0.218994140625,0.3934326171875,31.005857467651367,-25.573728561401367,-25.451658248901367
0.97412109375,0.1939697265625,0.45458984375,15.563963890075684,-25.939939498901367,-22.094724655151367
0.9979248046875,0.17431640625,0.4603271484375,1.15966796875,-21.728513717651367,-19.4091796875
0.99755859375,0.1719970703125,0.5052490234375,-3.784179449081421,-17.15087890625,-12.390135765075684
0.9268798828125,0.1502685546875,0.4620361328125,-3.845214605331421,-11.962889671325684,-13.183592796325684
0.9012451171875,0.1011962890625,0.4378662109375,-4.638671875,-11.352538108825684,-12.207030296325684
0.8675537109375,0.110107421875,0.4892578125,-2.746581792831421,-7.812499523162842,-11.840819358825684
0.880615234375,0.09765625,0.46728515625,-0.7934569716453552,-4.0283203125,-11.657713890075684
0.8883056640625,0.101806640625,0.4769287109375,-1.8920897245407104,-3.112792730331421,-10.009765625
0.884033203125,0.0804443359375,0.5015869140625,-4.5166015625,-0.2441406100988388,-9.58251953125
0.887451171875,0.0821533203125,0.4832763671875,-3.540038824081421,2.807616949081421,-6.469726085662842
0.8779296875,0.0888671875,0.4661865234375,0.1831054538488388,3.967284917831421,-3.967284917831421
0.8792724609375,0.0848388671875,0.4658203125,-2.563476324081421,3.295898199081421,-3.295898199081421
0.87744140625,0.0802001953125,0.482666015625,-1.5869139432907104,3.662109136581421,-0.2441406100988388
0.888671875,0.0816650390625,0.4566650390625,-0.7934569716453552,2.44140625,0.6103515625
0.87646484375,0.0845947265625,0.4521484375,-0.6103515625,1.4648436307907104,-0.4272460639476776
0.86474609375,0.0831298828125,0.4639892578125,-0.30517578125,1.7700194120407104,0.6713866591453552
0.8565673828125,0.075439453125,0.4439697265625,1.03759765625,1.5258787870407104,-0.3662109076976776
0.863525390625,0.0755615234375,0.4464111328125,0.9765624403953552,1.220703125,-2.624511480331421
0.8736572265625,0.080078125,0.455810546875,2.563476324081421,0.54931640625,-2.929687261581421
0.8782958984375,0.08203125,0.4713134765625,1.5258787870407104,0.0610351525247097,-2.0751953125
0.8841552734375,0.0784912109375,0.4676513671875,-1.8920897245407104,0.3662109076976776,-0.9765624403953552
0.8919677734375,0.0823974609375,0.4530029296875,0.4882812201976776,0.54931640625,0.4882812201976776
0.8934326171875,0.090087890625,0.473388671875,-1.8310545682907104,-0.1220703050494194,0.0610351525247097
0.8822021484375,0.0789794921875,0.460693359375,1.2817381620407104,0.9765624403953552,1.7700194120407104
0.8681640625,0.0943603515625,0.4561767578125,-0.0610351525247097,1.7700194120407104,0.9155272841453552
0.8665771484375,0.0806884765625,0.4459228515625,-0.9765624403953552,1.7089842557907104,-1.03759765625
0.8671875,0.08056640625,0.4600830078125,1.7700194120407104,1.2817381620407104,-1.8310545682907104
0.869873046875,0.0938720703125,0.4490966796875,1.7089842557907104,-0.0610351525247097,-1.5258787870407104
0.876953125,0.0833740234375,0.4525146484375,-1.5258787870407104,-1.0986328125,-2.50244140625
0.8798828125,0.071044921875,0.45947265625,-1.15966796875,-0.4272460639476776,-3.356933355331421
0.8834228515625,0.0821533203125,0.46533203125,-0.30517578125,0.1831054538488388,-2.01416015625
0.884765625,0.092041015625,0.447998046875,-0.30517578125,-0.0610351525247097,-2.197265625
0.8809814453125,0.075439453125,0.458740234375,-1.6479490995407104,-0.1220703050494194,-2.807616949081421
0.8812255859375,0.0723876953125,0.4580078125,0.4882812201976776,1.03759765625,-1.9531248807907104
0.88037109375,0.08447265625,0.4462890625,0.6713866591453552,0.7934569716453552,-1.7700194120407104
0.876953125,0.072998046875,0.458251953125,-0.6713866591453552,-0.1220703050494194,-1.7089842557907104
0.8822021484375,0.07861328125,0.455322265625,0.4882812201976776,0.0610351525247097,-1.03759765625
0.8853759765625,0.08154296875,0.4498291015625,-0.6713866591453552,-0.1831054538488388,-1.15966796875
0.88232421875,0.0743408203125,0.4580078125,-0.30517578125,0.30517578125,-1.8310545682907104
0.8807373046875,0.0753173828125,0.4647216796875,-0.0610351525247097,0.6713866591453552,-0.9155272841453552
0.8812255859375,0.0765380859375,0.4429931640625,-0.1220703050494194,0.3662109076976776,-0.9765624403953552
0.87744140625,0.0732421875,0.453369140625,-1.0986328125,-0.6103515625,-1.9531248807907104
0.8795166015625,0.0706787109375,0.4609375,1.5258787870407104,-0.4882812201976776,-1.7089842557907104
0.8841552734375,0.0772705078125,0.4481201171875,1.6479490995407104,-0.8544921278953552,-1.2817381620407104
0.8800048828125,0.0701904296875,0.4525146484375,0.1220703050494194,-1.15966796875,-1.5258787870407104
0.877685546875,0.0718994140625,0.47265625,-0.9155272841453552,-1.15966796875,-1.3427733182907104
0.8880615234375,0.070556640625,0.4580078125,-0.1220703050494194,-0.30517578125,-0.1831054538488388
0.8839111328125,0.076416015625,0.451171875,-0.1831054538488388,-0.1831054538488388,-0.54931640625
0.8837890625,0.071044921875,0.4608154296875,0.7934569716453552,0.1220703050494194,0.6713866591453552
0.881591796875,0.0721435546875,0.4556884765625,-0.2441406100988388,0.1831054538488388,0.3662109076976776
0.8807373046875,0.072509765625,0.452880859375,0.4272460639476776,0.4882812201976776,0.54931640625
0.8802490234375,0.072265625,0.4498291015625,-0.3662109076976776,0.2441406100988388,0.6103515625
0.872802734375,0.0701904296875,0.4599609375,-0.4272460639476776,0.3662109076976776,-0.54931640625
0.8802490234375,0.07568359375,0.4539794921875,0.6103515625,0.4272460639476776,-0.4272460639476776
0.876708984375,0.0728759765625,0.457763671875,0.3662109076976776,-0.1831054538488388,-0.6103515625
0.8765869140625,0.071044921875,0.4559326171875,0.2441406100988388,-0.1220703050494194,-0.8544921278953552
0.881591796875,0.0777587890625,0.4599609375,-0.6713866591453552,-0.3662109076976776,-0.4882812201976776
0.8790283203125,0.0740966796875,0.4571533203125,-0.2441406100988388,-0.4272460639476776,-0.54931640625
1.518310546875,0.41064453125,0.6361083984375,-69.3359375,26.733396530151367,43.273921966552734
1.548583984375,0.4505615234375,0.592041015625,-77.7587890625,33.26416015625,42.907711029052734
1.46875,0.3402099609375,0.4984130859375,-75.68359375,33.38623046875,36.62109375
1.3997802734375,0.3165283203125,0.4637451171875,-73.3642578125,30.273435592651367,12.084959983825684
1.33203125,0.2579345703125,0.3890380859375,-57.678218841552734,17.39501953125,-4.7607421875
1.05712890625,0.1087646484375,0.2562255859375,-37.9638671875,0.4882812201976776,-37.90283203125
0.836181640625,0.06787109375,0.3094482421875,-25.573728561401367,-21.972654342651367,-63.781734466552734
0.54052734375,0.0003662109375,0.2703857421875,-10.437010765075684,-34.3017578125,-84.71678924560547
0.310546875,-0.055419921875,0.2376708984375,16.6015625,-42.602535247802734,-105.28563690185547
0.2056884765625,-0.0458984375,0.2261962890625,13.183592796325684,-48.095699310302734,-116.39403533935547
0.2120361328125,-0.0413818359375,0.215087890625,8.11767578125,-44.677730560302734,-108.82567596435547
0.260498046875,-0.015869140625,0.1761474609375,-1.0986328125,-30.029294967651367,-89.90477752685547
0.5057373046875,-0.0755615234375,0.2476806640625,-24.291990280151367,-21.667478561401367,-55.969234466552734
0.6063232421875,0.0157470703125,0.3194580078125,1.4648436307907104,2.563476324081421,-18.5546875
0.7615966796875,-0.0106201171875,0.2083740234375,14.404295921325684,5.920409679412842,13.000487327575684
0.85986328125,0.01416015625,0.329833984375,7.568358898162842,-0.2441406100988388,19.53125
0.8341064453125,-0.0814208984375,0.358154296875,23.193357467651367,0.4272460639476776,16.357421875
0.8974609375,-0.1165771484375,0.3759765625,22.888181686401367,-0.8544921278953552,18.4326171875
0.80712890625,-0.0067138671875,0.43212890625,9.21630859375,0.6713866591453552,29.357908248901367
0.766357421875,-0.006591796875,0.3089599609375,12.512206077575684,2.868652105331421,36.9873046875
0.7088623046875,-0.00830078125,0.3118896484375,12.145995140075684,5.737304210662842,45.959468841552734
0.7257080078125,0.0025634765625,0.3363037109375,13.427733421325684,8.4228515625,53.405757904052734
0.682861328125,0.032958984375,0.3592529296875,15.686034202575684,14.160155296325684,62.988277435302734
0.728759765625,0.009521484375,0.322998046875,13.916014671325684,22.460935592651367,70.80078125
0.690673828125,0.0650634765625,0.395263671875,2.197265625,23.437498092651367,62.561031341552734
0.8175048828125,0.083984375,0.3079833984375,8.97216796875,34.85107421875,63.171382904052734
0.885009765625,0.1431884765625,0.294677734375,11.352538108825684,26.977537155151367,49.133296966552734
0.86474609375,0.1641845703125,0.3302001953125,8.544921875,25.085447311401367,41.503902435302734
0.91015625,0.166748046875,0.3206787109375,16.357421875,19.10400390625,35.46142578125
0.874267578125,0.1624755859375,0.33349609375,14.831542015075684,13.183592796325684,31.677244186401367
0.886474609375,0.2205810546875,0.3306884765625,9.27734375,10.009765625,24.169919967651367
0.9971923828125,0.2176513671875,0.2860107421875,1.4038084745407104,1.2817381620407104,18.5546875
0.9539794921875,0.2579345703125,0.3731689453125,-4.150390625,-0.3662109076976776,16.05224609375
1.07763671875,0.2391357421875,0.2977294921875,1.4038084745407104,-5.676269054412842,10.498045921325684
0.9912109375,0.2642822265625,0.377197265625,5.798339366912842,-6.835937023162842,5.554198741912842
1.013916015625,0.23291015625,0.37060546875,10.986327171325684,-2.01416015625,-1.4038084745407104
1.0509033203125,0.2459716796875,0.3336181640625,26.794431686401367,-0.7934569716453552,-0.2441406100988388
0.9625244140625,0.2822265625,0.345947265625,20.751951217651367,0.1831054538488388,-7.507323741912842
0.9949951171875,0.2225341796875,0.3311767578125,25.573728561401367,-3.234863042831421,-5.859374523162842
0.96337890625,0.2403564453125,0.3660888671875,22.949216842651367,-6.652831554412842,-9.94873046875
1.0037841796875,0.2325439453125,0.3863525390625,27.832029342651367,-5.0048828125,-9.33837890625
1.00244140625,0.208984375,0.377197265625,23.559568405151367,-7.324218273162842,-5.310058116912842
0.9964599609375,0.199951171875,0.375732421875,35.5224609375,-5.798339366912842,-7.629394054412842
0.970458984375,0.1978759765625,0.3936767578125,41.015621185302734,-8.11767578125,-3.784179449081421
0.9700927734375,0.1876220703125,0.3985595703125,45.288082122802734,-10.742186546325684,-2.13623046875
0.9278564453125,0.1600341796875,0.4295654296875,38.0859375,-11.901854515075684,-4.33349609375
0.893798828125,0.1629638671875,0.40771484375,33.63037109375,-8.48388671875,-9.765625
0.9276123046875,0.1634521484375,0.408935546875,23.071287155151367,-14.038084983825684,-11.474608421325684
0.8870849609375,0.14306640625,0.455322265625,17.7001953125,-13.061522483825684,-18.37158203125
0.927001953125,0.118408203125,0.4217529296875,16.66259765625,-13.610838890075684,-20.202634811401367
0.9261474609375,0.140625,0.48486328125,9.3994140625,-13.671874046325684,-22.338865280151367
0.96044921875,0.1007080078125,0.4716796875,4.57763671875,-11.108397483825684,-23.986814498901367
0.9637451171875,0.0697021484375,0.5047607421875,-3.479003667831421,-11.352538108825684,-18.12744140625
0.913818359375,0.036865234375,0.506591796875,-2.44140625,-5.676269054412842,-17.02880859375
0.90869140625,0.026611328125,0.463134765625,-2.929687261581421,-5.310058116912842,-13.122557640075684
0.8798828125,0.024169921875,0.490234375,-3.112792730331421,-4.08935546875,-9.21630859375
0.888427734375,0.002685546875,0.4805908203125,-2.38037109375,-2.563476324081421,-4.638671875
0.8922119140625,0.01904296875,0.484130859375,-1.2817381620407104,-1.4038084745407104,-1.8920897245407104
0.8856201171875,0.025634765625,0.4888916015625,-2.624511480331421,-0.30517578125,1.4648436307907104
0.8804931640625,0.0224609375,0.4603271484375,-0.7324218153953552,1.15966796875,1.7089842557907104
0.8656005859375,0.0318603515625,0.464599609375,-0.3662109076976776,1.8310545682907104,-0.30517578125
0.864013671875,0.0257568359375,0.46875,0.7324218153953552,1.7089842557907104,-1.0986328125
0.8685302734375,0.0299072265625,0.4683837890625,0.9155272841453552,1.0986328125,-1.5258787870407104
0.8616943359375,0.0262451171875,0.480712890625,-1.5869139432907104,0.4272460639476776,-2.197265625
0.8680419921875,0.0146484375,0.472412109375,-1.7089842557907104,-0.6103515625,-2.685546636581421
0.864501953125,0.0220947265625,0.486083984375,-1.0986328125,-1.5869139432907104,-2.38037109375
0.8701171875,0.019775390625,0.468017578125,0.6103515625,-1.8920897245407104,-2.929687261581421
0.87060546875,0.015380859375,0.4798583984375,-0.8544921278953552,-2.50244140625,-2.868652105331421
0.874755859375,0.0118408203125,0.4818115234375,-0.7324218153953552,-1.5258787870407104,-3.906249761581421
0.871826171875,0.010986328125,0.4847412109375,-1.4038084745407104,-0.8544921278953552,-2.624511480331421
0.8731689453125,0.0164794921875,0.476806640625,-0.4272460639476776,-0.6103515625,-2.990722417831421
0.8646240234375,0.0184326171875,0.5029296875,-2.01416015625,-1.5258787870407104,-2.3193359375
0.8787841796875,0.0167236328125,0.472412109375,-0.1220703050494194,-1.15966796875,-1.6479490995407104
0.876953125,0.0166015625,0.4820556640625,-1.8310545682907104,-1.7089842557907104,-1.220703125
0.8702392578125,0.0155029296875,0.490234375,-0.6103515625,-0.8544921278953552,-0.6713866591453552
0.8692626953125,0.020263671875,0.474365234375,-0.9765624403953552,-0.8544921278953552,-0.6103515625
0.8673095703125,0.004150390625,0.46044921875,0.7934569716453552,-0.54931640625,-1.7089842557907104
0.8670654296875,0.0103759765625,0.4798583984375,-0.1220703050494194,-0.0610351525247097,-1.6479490995407104
0.8671875,0.010986328125,0.4901123046875,0.3662109076976776,0.1831054538488388,-1.220703125
0.8787841796875,0.0230712890625,0.479736328125,-0.1220703050494194,-0.1831054538488388,-0.9155272841453552
0.8746337890625,0.0084228515625,0.482666015625,-1.5869139432907104,-0.54931640625,-0.7324218153953552
0.8720703125,0.0125732421875,0.4896240234375,-1.4038084745407104,-0.4882812201976776,0.0
0.87158203125,0.011962890625,0.489501953125,-1.4038084745407104,-0.30517578125,0.30517578125
0.86474609375,0.009765625,0.4808349609375,-0.4272460639476776,0.1831054538488388,-0.3662109076976776
0.8594970703125,0.0206298828125,0.48681640625,-0.8544921278953552,0.4882812201976776,-0.1831054538488388
0.8648681640625,0.0169677734375,0.47900390625,-0.4882812201976776,0.6103515625,-0.9765624403953552
0.864013671875,0.01708984375,0.4774169921875,0.30517578125,0.3662109076976776,-2.25830078125
0.8629150390625,0.0167236328125,0.4837646484375,0.9765624403953552,-0.2441406100988388,-2.3193359375
0.8665771484375,0.0174560546875,0.482421875,1.03759765625,-1.03759765625,-1.9531248807907104
0.868408203125,0.0086669921875,0.483154296875,-0.1220703050494194,-1.3427733182907104,-1.5869139432907104
0.8673095703125,0.0098876953125,0.485107421875,-0.9155272841453552,-0.8544921278953552,-2.197265625
0.86962890625,0.01318359375,0.490478515625,0.3662109076976776,-0.30517578125,-1.4648436307907104
0.8721923828125,0.014404296875,0.48193359375,0.1220703050494194,-0.6103515625,-1.15966796875
0.8670654296875,0.0081787109375,0.484619140625,0.1220703050494194,-0.30517578125,-1.7700194120407104
0.871337890625,0.0152587890625,0.4898681640625,1.4038084745407104,0.3662109076976776,-0.4882812201976776
0.87060546875,0.018310546875,0.4833984375,-0.2441406100988388,0.0,-0.4882812201976776
0.870849609375,0.0042724609375,0.4847412109375,-1.15966796875,0.0,-0.9155272841453552
0.8699951171875,0.013427734375,0.4869384765625,0.7934569716453552,0.6103515625,-0.54931640625
0.8670654296875,0.014892578125,0.4833984375,0.0610351525247097,0.2441406100988388,-0.0610351525247097
1.5931396484375,0.298828125,0.8394775390625,-63.781734466552734,20.751951217651367,33.935546875
1.857177734375,0.468017578125,0.9586181640625,-115.53954315185547,34.11865234375,67.626953125
1.8779296875,0.45947265625,0.7022705078125,-126.22069549560547,49.865718841552734,66.40625
1.6407470703125,0.3272705078125,0.5860595703125,-111.20604705810547,43.945308685302734,46.325679779052734
1.2960205078125,0.18212890625,0.4581298828125,-81.90917205810547,25.146482467651367,4.57763671875
0.96044921875,0.04150390625,0.2847900390625,-38.51318359375,-0.8544921278953552,-40.771480560302734
0.670166015625,0.0081787109375,0.2064208984375,-32.2265625,-26.550291061401367,-67.7490234375
0.4093017578125,-0.0341796875,0.234619140625,-24.963376998901367,-48.767086029052734,-108.64257049560547
0.1273193359375,-0.0455322265625,0.235595703125,-11.047362327575684,-58.288570404052734,-128.35693359375
0.101318359375,-0.080322265625,0.218505859375,-9.8876953125,-61.035152435302734,-132.62939453125
0.058349609375,-0.04052734375,0.2413330078125,17.76123046875,-45.776363372802734,-123.22997283935547
0.337646484375,-0.1412353515625,0.1572265625,-12.023924827575684,-26.184080123901367,-88.92821502685547
0.4390869140625,-0.042724609375,0.3607177734375,-5.615233898162842,1.6479490995407104,-37.04833984375
0.74951171875,-0.0255126953125,0.1951904296875,19.47021484375,13.854979515075684,5.371093273162842
0.7940673828125,0.0780029296875,0.267822265625,14.282225608825684,3.723144292831421,16.9677734375
0.8729248046875,-0.0279541015625,0.4310302734375,9.6435546875,-2.746581792831421,12.145995140075684
0.9068603515625,-0.0985107421875,0.38134765625,16.29638671875,-4.33349609375,14.099120140075684
0.855712890625,-0.0943603515625,0.469970703125,-1.7089842557907104,-6.713866710662842,9.765625
0.8466796875,-0.07275390625,0.442138671875,1.8310545682907104,-5.0048828125,8.6669921875
0.796630859375,-0.0401611328125,0.36962890625,1.5258787870407104,-4.638671875,16.845703125
0.6883544921875,-0.009033203125,0.3624267578125,9.1552734375,-1.0986328125,30.090330123901367
0.61669921875,-0.0159912109375,0.3345947265625,19.04296875,9.94873046875,50.109859466552734
0.6007080078125,-0.005615234375,0.318359375,24.230955123901367,14.953612327575684,73.974609375
0.5538330078125,0.02197265625,0.349609375,31.188962936401367,19.59228515625,84.71678924560547
0.6881103515625,-0.0384521484375,0.3885498046875,21.911619186401367,19.4091796875,88.13475799560547
0.489990234375,0.0748291015625,0.432861328125,22.583005905151367,33.87451171875,84.65575408935547
0.86669921875,0.01611328125,0.248291015625,32.5927734375,30.700681686401367,82.94676971435547
0.71826171875,0.1964111328125,0.4503173828125,-1.2817381620407104,22.705076217651367,64.02587890625
0.9996337890625,0.160888671875,0.3634033203125,1.5869139432907104,13.122557640075684,53.466793060302734
0.80615234375,0.206787109375,0.48681640625,8.4228515625,16.90673828125,42.846675872802734
1.046875,0.23583984375,0.325927734375,33.87451171875,10.437010765075684,34.5458984375
0.893798828125,0.260009765625,0.4383544921875,21.484373092651367,6.652831554412842,21.057126998901367
1.05908203125,0.24560546875,0.311279296875,29.663084030151367,3.723144292831421,13.183592796325684
0.923828125,0.2904052734375,0.4981689453125,17.15087890625,0.7934569716453552,7.141112804412842
1.04541015625,0.2606201171875,0.30029296875,28.137205123901367,5.310058116912842,1.5869139432907104
0.989990234375,0.2835693359375,0.47119140625,7.751464366912842,-1.5869139432907104,-4.33349609375
0.9998779296875,0.296630859375,0.4122314453125,26.123044967651367,0.7324218153953552,-8.23974609375
1.0721435546875,0.3016357421875,0.4395751953125,41.992183685302734,-1.9531248807907104,-4.45556640625
0.97265625,0.306640625,0.436279296875,35.5224609375,-7.019042491912842,-15.502928733825684
1.0294189453125,0.2694091796875,0.4290771484375,55.175777435302734,-7.873534679412842,-11.901854515075684
0.96533203125,0.28271484375,0.5078125,57.006832122802734,-11.901854515075684,-20.568845748901367
0.970458984375,0.171875,0.4376220703125,63.171382904052734,-13.305663108825684,-16.29638671875
0.928466796875,0.1844482421875,0.4903564453125,40.283199310302734,-20.996091842651367,-22.155759811401367
0.93603515625,0.117431640625,0.4793701171875,36.80419921875,-16.2353515625,-25.268552780151367
0.9522705078125,0.106201171875,0.494384765625,32.2265625,-15.808104515075684,-24.963376998901367
0.9090576171875,0.120849609375,0.54150390625,20.080564498901367,-11.657713890075684,-25.756834030151367
0.9683837890625,0.08935546875,0.444580078125,17.51708984375,-11.169432640075684,-25.390623092651367
0.924560546875,0.07470703125,0.533203125,9.765625,-13.610838890075684,-24.475095748901367
0.931640625,0.0355224609375,0.5291748046875,12.329100608825684,-9.82666015625,-23.559568405151367
0.9293212890625,0.0194091796875,0.52294921875,11.657713890075684,-9.82666015625,-18.9208984375
0.8843994140625,0.0064697265625,0.5355224609375,3.784179449081421,-8.85009765625,-17.4560546875
0.8836669921875,-0.032958984375,0.529296875,0.7324218153953552,-6.469726085662842,-12.695311546325684
0.8695068359375,-0.0323486328125,0.53076171875,-2.13623046875,-6.286620616912842,-10.253905296325684
0.866943359375,-0.0615234375,0.5196533203125,-3.601073980331421,-5.0048828125,-6.774901866912842
0.862060546875,-0.0413818359375,0.5498046875,-2.38037109375,-5.126952648162842,-4.7607421875
0.848388671875,-0.0555419921875,0.5262451171875,-0.9765624403953552,-2.807616949081421,-4.82177734375
0.85400390625,-0.055419921875,0.531005859375,-0.7324218153953552,-3.662109136581421,-4.5166015625
0.838134765625,-0.055419921875,0.55908203125,-0.7324218153953552,-1.4648436307907104,-4.69970703125
0.8453369140625,-0.056640625,0.5360107421875,-1.15966796875,-0.7934569716453552,-3.723144292831421
0.8355712890625,-0.05810546875,0.54150390625,-2.990722417831421,-0.8544921278953552,-4.150390625
0.8349609375,-0.0625,0.5537109375,-4.150390625,-0.2441406100988388,-2.624511480331421
0.834716796875,-0.0567626953125,0.5406494140625,-3.356933355331421,0.3662109076976776,-1.4648436307907104
0.843505859375,-0.056396484375,0.5333251953125,-5.920409679412842,-0.1831054538488388,-1.4648436307907104
0.8489990234375,-0.0570068359375,0.5550537109375,-5.310058116912842,-0.2441406100988388,-1.4648436307907104
0.8419189453125,-0.045166015625,0.53076171875,-2.929687261581421,0.7324218153953552,0.1831054538488388
0.828125,-0.041259765625,0.51806640625,-3.845214605331421,0.0610351525247097,0.54931640625
0.823974609375,-0.0548095703125,0.5279541015625,-4.638671875,-0.6103515625,-1.4038084745407104
0.82861328125,-0.0548095703125,0.539306640625,-2.38037109375,-0.4272460639476776,-0.8544921278953552
0.8321533203125,-0.0369873046875,0.5299072265625,-3.906249761581421,-0.54931640625,-2.990722417831421
0.83056640625,-0.0548095703125,0.5399169921875,-4.638671875,-0.7934569716453552,-4.150390625
0.8309326171875,-0.0389404296875,0.55126953125,-2.868652105331421,0.0,-1.8920897245407104
0.8338623046875,-0.019287109375,0.52880859375,-1.8310545682907104,-0.4882812201976776,-1.9531248807907104
0.832763671875,-0.0401611328125,0.5474853515625,-3.112792730331421,-1.7089842557907104,-2.563476324081421
0.8387451171875,-0.0389404296875,0.549072265625,-0.9765624403953552,-1.3427733182907104,-0.4882812201976776
0.8349609375,-0.03173828125,0.5281982421875,-0.8544921278953552,-1.8920897245407104,-0.9765624403953552
0.8380126953125,-0.0360107421875,0.54296875,-1.0986328125,-1.7700194120407104,-1.3427733182907104
0.835693359375,-0.0323486328125,0.543701171875,-2.197265625,-0.54931640625,-0.6103515625
0.83447265625,-0.029296875,0.525634765625,-1.15966796875,0.3662109076976776,-0.6103515625
0.8419189453125,-0.031982421875,0.538330078125,-2.807616949081421,0.1831054538488388,-1.220703125
0.840087890625,-0.0401611328125,0.5340576171875,-0.6713866591453552,0.4272460639476776,-1.6479490995407104
0.82861328125,-0.038818359375,0.538818359375,0.30517578125,0.4882812201976776,-0.7324218153953552
0.835693359375,-0.036376953125,0.5386962890625,-1.4038084745407104,-0.1220703050494194,-0.4272460639476776
0.838623046875,-0.042724609375,0.5435791015625,-1.03759765625,-0.8544921278953552,0.0610351525247097
0.8359375,-0.0343017578125,0.544189453125,0.1220703050494194,-0.54931640625,0.9155272841453552
0.8358154296875,-0.03076171875,0.5386962890625,0.1220703050494194,-0.4272460639476776,0.9155272841453552
0.830810546875,-0.0357666015625,0.5467529296875,0.1220703050494194,-1.15966796875,0.9765624403953552
0.8251953125,-0.043212890625,0.5552978515625,0.4272460639476776,-0.9765624403953552,1.5258787870407104
0.8203125,-0.028564453125,0.5531005859375,-0.8544921278953552,-1.4038084745407104,1.7700194120407104
0.819091796875,-0.03466796875,0.5487060546875,-1.6479490995407104,-1.7089842557907104,1.3427733182907104
0.8192138671875,-0.0316162109375,0.5467529296875,-1.4648436307907104,-1.4038084745407104,-0.0610351525247097
0.825927734375,-0.0216064453125,0.54541015625,-1.3427733182907104,-1.3427733182907104,0.0
0.827392578125,-0.0185546875,0.5428466796875,-0.7934569716453552,-1.4648436307907104,-0.7934569716453552
0.8328857421875,-0.025634765625,0.548828125,-0.1831054538488388,-1.5869139432907104,-0.7324218153953552
0.82958984375,-0.023681640625,0.54833984375,-0.7934569716453552,-0.7934569716453552,-0.8544921278953552
0.8287353515625,-0.0252685546875,0.5494384765625,-1.4038084745407104,0.0610351525247097,-1.7700194120407104
0.829345703125,-0.028564453125,0.5455322265625,-1.0986328125,0.4882812201976776,-1.8920897245407104
0.8223876953125,-0.035888671875,0.5469970703125,-0.7934569716453552,0.4272460639476776,-1.7089842557907104
0.8218994140625,-0.0345458984375,0.545654296875,0.4272460639476776,0.4882812201976776,-2.624511480331421
0.8179931640625,-0.027587890625,0.5496826171875,-0.8544921278953552,1.03759765625,-2.197265625
0.82958984375,-0.02490234375,0.5390625,-0.2441406100988388,0.7934569716453552,-2.197265625
1.490478515625,0.2215576171875,0.9442138671875,-71.1669921875,20.812986373901367,44.006343841552734
1.6966552734375,0.49658203125,0.9451904296875,-115.11229705810547,23.925779342651367,57.128902435302734
1.703125,0.3702392578125,0.8194580078125,-136.41357421875,27.038572311401367,58.105464935302734
1.57470703125,0.2972412109375,0.864013671875,-147.3388671875,36.4990234375,38.0859375
1.315185546875,0.1468505859375,0.675048828125,-104.61425018310547,38.26904296875,5.554198741912842
1.041015625,0.02734375,0.3958740234375,-61.401363372802734,28.198240280151367,-20.324705123901367
0.807373046875,0.004638671875,0.27734375,-43.945308685302734,-1.4038084745407104,-62.011714935302734
0.51318359375,-0.02099609375,0.3052978515625,-16.78466796875,-24.169919967651367,-97.90038299560547
0.2447509765625,-0.088623046875,0.266357421875,7.019042491912842,-36.92626953125,-122.61962127685547
0.019775390625,-0.086181640625,0.2174072265625,15.869139671325684,-40.466304779052734,-132.9345703125
0.0625,-0.069580078125,0.1556396484375,20.568845748901367,-35.82763671875,-118.95751190185547
0.23388671875,-0.0982666015625,0.207763671875,-15.563963890075684,-22.094724655151367,-92.22411346435547
0.4525146484375,-0.0064697265625,0.2548828125,14.648436546325684,-3.173827886581421,-47.973628997802734
0.677490234375,-0.010986328125,0.279296875,21.362302780151367,7.019042491912842,-9.1552734375
0.77587890625,-0.0289306640625,0.357666015625,18.00537109375,4.2724609375,5.615233898162842
0.839111328125,-0.082763671875,0.4149169921875,22.888181686401367,3.417968511581421,10.314940452575684
0.8311767578125,-0.1151123046875,0.3701171875,29.907224655151367,-1.6479490995407104,9.521484375
0.837646484375,-0.0830078125,0.4293212890625,11.230467796325684,-6.958007335662842,14.831542015075684
0.760009765625,-0.05029296875,0.3704833984375,14.587401390075684,-8.544921875,17.08984375
0.73095703125,-0.1051025390625,0.3482666015625,20.690916061401367,-5.187987804412842,33.02001953125
0.707275390625,-0.036865234375,0.339111328125,16.4794921875,-6.530761241912842,38.6962890625
0.69140625,-0.06103515625,0.3590087890625,25.268552780151367,-1.9531248807907104,52.124019622802734
0.69873046875,-0.0894775390625,0.435546875,17.7001953125,-3.723144292831421,59.204097747802734
0.77587890625,-0.0672607421875,0.3739013671875,29.602048873901367,2.25830078125,63.110347747802734
0.7244873046875,-0.046630859375,0.4578857421875,26.428220748901367,2.868652105331421,60.180660247802734
0.831298828125,-0.045166015625,0.4013671875,34.72900390625,5.065917491912842,62.622066497802734
0.748291015625,0.0078125,0.4898681640625,23.193357467651367,2.624511480331421,56.518550872802734
0.8348388671875,-0.0067138671875,0.4793701171875,21.179197311401367,3.967284917831421,52.307125091552734
0.7750244140625,0.030029296875,0.4920654296875,26.855466842651367,10.681151390075684,47.607418060302734
0.879150390625,0.0560302734375,0.3819580078125,27.282712936401367,6.774901866912842,43.457027435302734
0.8170166015625,0.10986328125,0.4906005859375,11.901854515075684,10.192870140075684,32.16552734375
0.9005126953125,0.0941162109375,0.4161376953125,13.732909202575684,7.385253429412842,25.817869186401367
0.88671875,0.1318359375,0.4998779296875,7.812499523162842,7.995604991912842,16.845703125
0.954833984375,0.1494140625,0.46240234375,20.751951217651367,7.507323741912842,12.329100608825684
0.97607421875,0.1365966796875,0.513916015625,16.845703125,3.540038824081421,10.986327171325684
0.94189453125,0.12451171875,0.500732421875,16.41845703125,1.8920897245407104,5.187987804412842
1.000732421875,0.1531982421875,0.495849609375,20.141599655151367,2.01416015625,2.624511480331421
0.9249267578125,0.13427734375,0.51025390625,14.465331077575684,0.1220703050494194,0.8544921278953552
0.99951171875,0.1107177734375,0.4481201171875,11.840819358825684,-2.25830078125,-3.051757574081421
0.999755859375,0.188720703125,0.51416015625,13.183592796325684,-1.7700194120407104,-1.0986328125
0.9266357421875,0.1136474609375,0.505859375,12.390135765075684,-1.5869139432907104,-5.615233898162842
0.9779052734375,0.1351318359375,0.4793701171875,15.624999046325684,-3.417968511581421,-3.662109136581421
0.9144287109375,0.1444091796875,0.500732421875,12.329100608825684,-1.9531248807907104,-8.85009765625
0.9490966796875,0.0963134765625,0.4525146484375,11.962889671325684,-4.57763671875,-9.1552734375
0.8931884765625,0.1165771484375,0.5086669921875,7.263183116912842,-9.82666015625,-12.573241233825684
0.9073486328125,0.0919189453125,0.515625,26.489255905151367,-12.573241233825684,-6.835937023162842
0.9222412109375,0.0972900390625,0.5294189453125,29.357908248901367,-17.578125,-9.3994140625
0.9031982421875,0.0626220703125,0.5262451171875,18.37158203125,-16.90673828125,-9.8876953125
0.917724609375,0.0482177734375,0.552001953125,11.291502952575684,-17.4560546875,-10.253905296325684
0.9093017578125,0.0751953125,0.55322265625,14.038084983825684,-10.986327171325684,-10.986327171325684
0.9061279296875,0.0362548828125,0.482177734375,8.60595703125,-9.09423828125,-11.962889671325684
0.9073486328125,0.055419921875,0.53515625,9.521484375,-9.033203125,-13.488768577575684
0.9149169921875,0.04443359375,0.5396728515625,16.29638671875,-6.774901866912842,-12.207030296325684
0.9384765625,0.0556640625,0.548095703125,11.413573265075684,-7.507323741912842,-10.864256858825684
0.909423828125,0.035400390625,0.6187744140625,-2.50244140625,-5.981444835662842,-7.934569835662842
0.888427734375,0.0084228515625,0.560791015625,-6.591796398162842,-0.8544921278953552,-7.812499523162842
0.85302734375,-0.017822265625,0.53515625,-11.962889671325684,-0.8544921278953552,-7.385253429412842
0.836181640625,-0.0159912109375,0.548583984375,-7.568358898162842,0.54931640625,-6.042479991912842
0.8287353515625,-0.029541015625,0.525634765625,-1.03759765625,-0.0610351525247097,-5.126952648162842
0.8199462890625,-0.03564453125,0.534423828125,3.234863042831421,-0.1220703050494194,-3.845214605331421
0.8394775390625,-0.020751953125,0.5423583984375,2.0751953125,-0.7324218153953552,-2.685546636581421
0.841064453125,-0.0198974609375,0.5506591796875,-2.13623046875,-0.4882812201976776,-1.0986328125
0.8399658203125,-0.0081787109375,0.531005859375,-4.08935546875,0.0,-1.220703125
0.829345703125,-0.010986328125,0.5660400390625,-6.469726085662842,0.9155272841453552,-1.6479490995407104
0.8404541015625,-0.0155029296875,0.5218505859375,-1.4038084745407104,0.9765624403953552,-1.2817381620407104
0.8250732421875,-0.0216064453125,0.5472412109375,-0.30517578125,0.8544921278953552,-1.0986328125
0.830078125,-0.0269775390625,0.5484619140625,-0.1831054538488388,-0.0610351525247097,-0.1220703050494194
0.823974609375,-0.026123046875,0.5338134765625,-1.7700194120407104,0.8544921278953552,0.54931640625
0.83740234375,-0.002685546875,0.5269775390625,-2.44140625,0.3662109076976776,0.54931640625
0.836181640625,-0.009033203125,0.5408935546875,-1.220703125,-0.7324218153953552,-0.30517578125
0.832763671875,0.0006103515625,0.5413818359375,1.220703125,-1.4648436307907104,-1.2817381620407104
0.8294677734375,-0.017822265625,0.5401611328125,-2.44140625,-2.44140625,-2.38037109375
0.8319091796875,-0.026611328125,0.5504150390625,-1.4038084745407104,-1.0986328125,-1.8310545682907104
0.832275390625,-0.017578125,0.548095703125,-1.03759765625,-0.4272460639476776,-1.2817381620407104
0.8367919921875,-0.0184326171875,0.5216064453125,1.2817381620407104,-0.3662109076976776,-0.30517578125
0.8282470703125,-0.0211181640625,0.552978515625,-0.6103515625,-0.4882812201976776,-0.0610351525247097
0.833984375,-0.01220703125,0.5472412109375,2.38037109375,0.7934569716453552,0.30517578125
0.83349609375,-0.0098876953125,0.535400390625,0.7324218153953552,0.54931640625,-1.15966796875
0.833740234375,-0.021240234375,0.5462646484375,0.7324218153953552,1.0986328125,-1.03759765625
0.8348388671875,-0.0157470703125,0.5396728515625,0.4272460639476776,1.3427733182907104,-1.15966796875
0.83154296875,-0.0234375,0.545166015625,0.4882812201976776,0.9765624403953552,-0.9765624403953552
0.83642578125,-0.0130615234375,0.550048828125,0.1831054538488388,0.9765624403953552,0.30517578125
0.8428955078125,-0.0125732421875,0.537841796875,-1.6479490995407104,0.4882812201976776,0.54931640625
0.8355712890625,-0.0225830078125,0.5479736328125,-1.15966796875,0.6713866591453552,0.0610351525247097
0.83837890625,-0.0203857421875,0.5333251953125,0.4272460639476776,0.9765624403953552,0.9155272841453552
0.835205078125,-0.0126953125,0.533935546875,-0.1831054538488388,0.6103515625,0.0610351525247097
0.836181640625,-0.0137939453125,0.5394287109375,0.0610351525247097,0.30517578125,0.1220703050494194
0.829345703125,-0.0155029296875,0.5377197265625,-0.30517578125,0.1831054538488388,-0.1220703050494194
0.8328857421875,-0.0125732421875,0.5284423828125,-1.3427733182907104,-0.4882812201976776,-0.4272460639476776
0.8314208984375,-0.018310546875,0.540771484375,0.2441406100988388,-0.30517578125,-0.9155272841453552
0.8292236328125,-0.005859375,0.5341796875,1.2817381620407104,-0.1220703050494194,-1.15966796875
0.8341064453125,-0.0111083984375,0.5345458984375,-0.7324218153953552,-0.9155272841453552,-1.2817381620407104
0.830322265625,-0.0206298828125,0.54443359375,0.1831054538488388,0.0610351525247097,-1.2817381620407104
0.83447265625,-0.0111083984375,0.54052734375,0.0610351525247097,0.4882812201976776,-1.3427733182907104
0.83447265625,-0.017822265625,0.541259765625,0.0,0.4272460639476776,-1.4648436307907104
0.8328857421875,-0.01220703125,0.5426025390625,0.2441406100988388,0.0610351525247097,-0.4272460639476776
0.83740234375,-0.01220703125,0.5384521484375,0.2441406100988388,-0.6713866591453552,-0.7934569716453552
0.8349609375,-0.0157470703125,0.5406494140625,0.7324218153953552,-0.54931640625,-0.6713866591453552
0.8299560546875,-0.01611328125,0.5360107421875,-0.0610351525247097,-0.1220703050494194,-1.0986328125
1.539306640625,0.2218017578125,0.9500732421875,-61.096187591552734,22.521970748901367,32.3486328125
1.7591552734375,0.3114013671875,1.0919189453125,-98.69384002685547,35.2783203125,70.00732421875
1.8421630859375,0.38818359375,0.7965087890625,-107.42186737060547,46.264644622802734,80.50536346435547
1.6116943359375,0.3160400390625,0.6431884765625,-127.13622283935547,45.471187591552734,56.457515716552734
1.404052734375,0.18505859375,0.5321044921875,-115.23436737060547,36.9873046875,22.888181686401367
1.010498046875,0.080810546875,0.5040283203125,-88.80614471435547,19.83642578125,-18.85986328125
0.7198486328125,-0.01025390625,0.258056640625,-44.616695404052734,-0.30517578125,-62.072750091552734
0.453125,-0.0167236328125,0.1513671875,-16.78466796875,-27.465818405151367,-97.04589080810547
0.1319580078125,0.0150146484375,0.25830078125,-10.131834983825684,-44.128414154052734,-124.45067596435547
0.0347900390625,-0.0423583984375,0.177978515625,18.98193359375,-39.00146484375,-129.638671875
0.126220703125,-0.09619140625,0.0849609375,6.286620616912842,-38.51318359375,-116.57714080810547
0.2860107421875,-0.0537109375,0.2266845703125,-10.131834983825684,-25.756834030151367,-80.32225799560547
0.515869140625,0.0672607421875,0.2650146484375,-3.845214605331421,-7.385253429412842,-43.762203216552734
0.7335205078125,0.028076171875,0.25244140625,12.512206077575684,3.967284917831421,-9.6435546875
0.77294921875,0.024169921875,0.37939453125,-3.173827886581421,2.25830078125,7.690429210662842
0.861572265625,-0.0589599609375,0.3609619140625,3.356933355331421,2.929687261581421,14.770506858825684
0.8931884765625,-0.04638671875,0.3504638671875,-3.051757574081421,0.30517578125,13.366698265075684
0.82958984375,-0.00439453125,0.40478515625,-9.3994140625,-2.25830078125,15.014647483825684
0.871826171875,0.000732421875,0.3841552734375,-8.9111328125,-4.69970703125,15.319823265075684
0.7984619140625,-0.031005859375,0.4078369140625,1.6479490995407104,-2.624511480331421,20.690916061401367
0.7916259765625,-0.0137939453125,0.35400390625,14.770506858825684,1.7700194120407104,27.832029342651367
0.7578125,-0.014404296875,0.3541259765625,23.742673873901367,4.33349609375,40.10009765625
0.6607666015625,0.0218505859375,0.3543701171875,34.1796875,12.756346702575684,52.368160247802734
0.7210693359375,-0.001953125,0.3017578125,46.997066497802734,13.671874046325684,65.36865234375
0.6759033203125,0.0526123046875,0.381591796875,45.410152435302734,15.624999046325684,69.7021484375
0.7152099609375,0.0316162109375,0.34912109375,46.752925872802734,19.47021484375,73.54736328125
0.75048828125,0.09765625,0.3135986328125,37.2314453125,21.667478561401367,67.5048828125
0.7899169921875,0.131103515625,0.321533203125,22.644041061401367,17.2119140625,61.096187591552734
0.781005859375,0.126220703125,0.325927734375,1.5258787870407104,16.11328125,55.969234466552734
0.9090576171875,0.212646484375,0.3743896484375,-4.33349609375,8.11767578125,42.175289154052734
0.9095458984375,0.1778564453125,0.3328857421875,1.5869139432907104,6.530761241912842,33.26416015625
0.95703125,0.26171875,0.4141845703125,4.7607421875,-4.5166015625,28.198240280151367
0.932373046875,0.234130859375,0.422119140625,5.554198741912842,-0.6713866591453552,17.76123046875
0.9815673828125,0.2799072265625,0.4835205078125,10.864256858825684,-9.58251953125,15.136717796325684
0.9073486328125,0.2696533203125,0.4454345703125,3.723144292831421,-4.150390625,4.2724609375
1.0101318359375,0.2852783203125,0.42041015625,16.11328125,-9.33837890625,6.774901866912842
0.900146484375,0.300048828125,0.5377197265625,2.3193359375,-12.023924827575684,4.45556640625
0.9805908203125,0.268310546875,0.4510498046875,7.690429210662842,-5.554198741912842,-3.112792730331421
0.8843994140625,0.2486572265625,0.4793701171875,4.7607421875,0.0610351525247097,-2.868652105331421
0.94189453125,0.2884521484375,0.4854736328125,-7.080077648162842,3.173827886581421,-8.544921875
0.9539794921875,0.2811279296875,0.420654296875,4.94384765625,1.4648436307907104,-2.38037109375
0.90869140625,0.2930908203125,0.4561767578125,11.657713890075684,-0.2441406100988388,-7.019042491912842
0.9202880859375,0.27197265625,0.466064453125,22.644041061401367,-1.0986328125,-6.958007335662842
0.9476318359375,0.2626953125,0.3966064453125,50.292964935302734,-4.8828125,-9.1552734375
0.8896484375,0.25146484375,0.4598388671875,49.926753997802734,-6.774901866912842,-9.8876953125
0.9189453125,0.23095703125,0.466064453125,49.194332122802734,-7.324218273162842,-15.502928733825684
0.9268798828125,0.1663818359375,0.4278564453125,44.921871185302734,-10.437010765075684,-13.854979515075684
0.9202880859375,0.2088623046875,0.5191650390625,26.733396530151367,-9.21630859375,-12.329100608825684
0.9346923828125,0.19091796875,0.477294921875,17.39501953125,-6.774901866912842,-16.11328125
0.9112548828125,0.1273193359375,0.4847412109375,0.6103515625,-4.94384765625,-18.49365234375
0.909912109375,0.0970458984375,0.475341796875,2.746581792831421,-2.929687261581421,-15.258788108825684
0.8905029296875,0.1226806640625,0.5068359375,6.347655773162842,-2.3193359375,-13.305663108825684
0.8974609375,0.1273193359375,0.4775390625,13.244627952575684,-1.7700194120407104,-14.099120140075684
0.9114990234375,0.0816650390625,0.46240234375,13.549803733825684,-5.249022960662842,-10.314940452575684
0.876220703125,0.10498046875,0.537841796875,10.620116233825684,-6.286620616912842,-10.253905296325684
0.9200439453125,0.0697021484375,0.4910888671875,10.070799827575684,-4.8828125,-8.97216796875
0.88525390625,0.0821533203125,0.512451171875,2.990722417831421,-4.21142578125,-10.253905296325684
0.8819580078125,0.0634765625,0.5162353515625,-0.9765624403953552,-2.868652105331421,-10.803221702575684
0.8768310546875,0.0560302734375,0.517333984375,-1.220703125,-2.197265625,-9.033203125
0.870361328125,0.0548095703125,0.4964599609375,3.234863042831421,-2.197265625,-8.9111328125
0.869140625,0.0355224609375,0.5093994140625,1.15966796875,-3.112792730331421,-8.1787109375
0.8719482421875,0.0335693359375,0.5213623046875,1.6479490995407104,-2.38037109375,-5.798339366912842
0.87109375,0.034423828125,0.495849609375,-1.0986328125,-2.868652105331421,-4.21142578125
0.86181640625,0.028564453125,0.5198974609375,-2.746581792831421,-2.685546636581421,-3.540038824081421
0.861083984375,0.0250244140625,0.5108642578125,-1.0986328125,-1.5258787870407104,-2.807616949081421
0.8616943359375,0.0389404296875,0.4940185546875,0.30517578125,-1.4038084745407104,-0.54931640625
0.857666015625,0.03271484375,0.5037841796875,-0.2441406100988388,-0.7324218153953552,-0.54931640625
0.855712890625,0.0216064453125,0.5206298828125,-1.2817381620407104,0.9155272841453552,-1.5258787870407104
0.861572265625,0.02490234375,0.5028076171875,2.01416015625,1.6479490995407104,0.1220703050494194
0.85107421875,0.0406494140625,0.5059814453125,0.8544921278953552,0.7934569716453552,-0.3662109076976776
0.845703125,0.0255126953125,0.5203857421875,-0.54931640625,0.3662109076976776,-1.5258787870407104
0.848388671875,0.0218505859375,0.51611328125,0.0,0.6103515625,-1.3427733182907104
0.8505859375,0.0380859375,0.51025390625,0.6103515625,-0.1831054538488388,-1.4648436307907104
0.85302734375,0.027587890625,0.5133056640625,-1.7700194120407104,-1.220703125,-2.50244140625
0.8575439453125,0.021484375,0.51416015625,-0.7934569716453552,-0.4882812201976776,-1.3427733182907104
0.85693359375,0.0323486328125,0.503662109375,-0.9765624403953552,-0.0610351525247097,-1.4038084745407104
0.85595703125,0.0272216796875,0.5025634765625,-1.6479490995407104,0.0,-1.7089842557907104
0.8516845703125,0.024658203125,0.5096435546875,-0.1831054538488388,0.4272460639476776,-1.5869139432907104
0.8519287109375,0.02783203125,0.498291015625,0.7934569716453552,0.0610351525247097,-1.4038084745407104
0.849853515625,0.02490234375,0.5084228515625,-0.6713866591453552,-0.30517578125,-1.8310545682907104
0.853515625,0.0181884765625,0.5145263671875,-1.15966796875,-0.1831054538488388,-1.5869139432907104
0.8515625,0.02783203125,0.5089111328125,0.7324218153953552,0.6103515625,-1.15966796875
0.855712890625,0.026123046875,0.503173828125,-1.3427733182907104,-0.0610351525247097,-2.01416015625
0.8543701171875,0.01708984375,0.510986328125,0.6103515625,0.4272460639476776,-2.563476324081421
0.8580322265625,0.0274658203125,0.5076904296875,1.8310545682907104,0.3662109076976776,-2.13623046875
0.8564453125,0.0262451171875,0.5120849609375,0.7934569716453552,-0.4882812201976776,-1.3427733182907104
0.852783203125,0.009521484375,0.509033203125,-1.8310545682907104,-0.8544921278953552,-1.03759765625
0.85107421875,0.01953125,0.51123046875,-0.6713866591453552,0.1220703050494194,-1.03759765625
0.8543701171875,0.0279541015625,0.5047607421875,0.2441406100988388,0.0610351525247097,-0.9155272841453552
0.8514404296875,0.02197265625,0.50927734375,0.2441406100988388,-0.30517578125,-0.9765624403953552
0.8570556640625,0.012451171875,0.514892578125,0.9155272841453552,0.3662109076976776,-0.4272460639476776
0.8570556640625,0.0299072265625,0.50830078125,-0.30517578125,0.6713866591453552,-0.9155272841453552
0.8564453125,0.0242919921875,0.5067138671875,-0.30517578125,0.6103515625,-0.3662109076976776
0.853515625,0.019287109375,0.5142822265625,-0.1220703050494194,0.7324218153953552,-0.7324218153953552
0.8492431640625,0.016845703125,0.51025390625,-0.4272460639476776,1.4038084745407104,-1.0986328125
0.8529052734375,0.0257568359375,0.4981689453125,0.2441406100988388,1.5869139432907104,-1.5258787870407104
0.8541259765625,0.02294921875,0.50927734375,-0.3662109076976776,0.6103515625,-1.2817381620407104
0.852783203125,0.0181884765625,0.5052490234375,1.0986328125,0.2441406100988388,-0.9155272841453552
0.8553466796875,0.0244140625,0.5015869140625,0.3662109076976776,-0.54931640625,-0.6713866591453552
0.854736328125,0.0172119140625,0.50439453125,-1.4648436307907104,-0.4272460639476776,-1.3427733182907104
1.557861328125,0.27001953125,0.845703125,-66.22314453125,27.404783248901367,43.762203216552734
1.7618408203125,0.4573974609375,0.879638671875,-114.37987518310547,42.480464935302734,56.701656341552734
1.7713623046875,0.3604736328125,0.6654052734375,-112.54882049560547,54.199214935302734,68.05419921875
1.5531005859375,0.3211669921875,0.6064453125,-103.63768768310547,50.231929779052734,36.19384765625
1.367919921875,0.18896484375,0.463623046875,-78.0029296875,37.841796875,12.878417015075684
1.0003662109375,0.087890625,0.3011474609375,-55.786128997802734,10.803221702575684,-33.87451171875
0.720947265625,0.015625,0.1761474609375,-25.573728561401367,-18.06640625,-78.79638671875
0.36572265625,-0.00830078125,0.2064208984375,2.197265625,-42.663570404052734,-114.56298065185547
0.1123046875,-0.0546875,0.1634521484375,28.930662155151367,-52.124019622802734,-138.48876953125
-0.0372314453125,-0.0916748046875,0.125,47.729488372802734,-53.283687591552734,-143.98193359375
0.1141357421875,-0.1292724609375,0.114013671875,32.470703125,-39.73388671875,-123.77928924560547
0.3206787109375,-0.1158447265625,0.2216796875,-9.46044921875,-25.024412155151367,-84.65575408935547
0.468505859375,-0.0772705078125,0.251220703125,0.2441406100988388,4.5166015625,-20.751951217651367
0.8160400390625,0.136962890625,0.1917724609375,10.864256858825684,1.7700194120407104,20.202634811401367
0.7886962890625,0.0828857421875,0.343994140625,1.7700194120407104,2.44140625,25.024412155151367
0.8712158203125,-0.0789794921875,0.2625732421875,5.126952648162842,-1.2817381620407104,35.09521484375
0.7589111328125,-0.0494384765625,0.3966064453125,-8.056640625,-4.94384765625,35.15625
0.702392578125,-0.0211181640625,0.364501953125,17.02880859375,2.807616949081421,55.175777435302734
0.679443359375,0.03125,0.2684326171875,21.301267623901367,4.45556640625,62.988277435302734
0.6285400390625,0.0599365234375,0.301513671875,14.282225608825684,8.36181640625,70.73974609375
0.65966796875,0.0228271484375,0.3048095703125,22.460935592651367,13.854979515075684,79.04052734375
0.6102294921875,0.083740234375,0.3233642578125,31.188962936401367,19.71435546875,83.37401580810547
0.72412109375,0.0860595703125,0.307861328125,20.141599655151367,18.98193359375,75.01220703125
0.7755126953125,0.137451171875,0.36279296875,1.8310545682907104,22.888181686401367,63.171382904052734
0.8402099609375,0.150146484375,0.3614501953125,6.408690929412842,17.7001953125,60.302730560302734
0.882568359375,0.18505859375,0.3714599609375,5.371093273162842,18.4326171875,45.959468841552734
0.958984375,0.228271484375,0.355224609375,13.000487327575684,13.000487327575684,36.80419921875
0.90771484375,0.23388671875,0.401123046875,13.305663108825684,11.230467796325684,24.475095748901367
1.042724609375,0.28857421875,0.3602294921875,22.216794967651367,4.57763671875,17.39501953125
0.9766845703125,0.267333984375,0.415283203125,13.732909202575684,6.042479991912842,8.30078125
1.05419921875,0.2850341796875,0.356201171875,19.8974609375,1.0986328125,8.9111328125
0.9888916015625,0.3175048828125,0.404296875,-7.141112804412842,1.220703125,-5.554198741912842
1.0772705078125,0.301513671875,0.3345947265625,2.25830078125,4.7607421875,-2.38037109375
0.981201171875,0.302001953125,0.3948974609375,-11.413573265075684,0.1831054538488388,-7.690429210662842
0.99853515625,0.3148193359375,0.368408203125,-0.4882812201976776,0.9765624403953552,-10.803221702575684
1.007080078125,0.2672119140625,0.3946533203125,2.868652105331421,0.7934569716453552,-9.70458984375
0.953369140625,0.2889404296875,0.37646484375,-0.6103515625,0.1831054538488388,-13.366698265075684
0.987548828125,0.2369384765625,0.346435546875,2.3193359375,1.4038084745407104,-12.145995140075684
0.9747314453125,0.2320556640625,0.34765625,25.207517623901367,4.39453125,-11.535643577575684
0.9757080078125,0.251708984375,0.334716796875,24.963376998901367,0.1220703050494194,-12.817381858825684
1.0015869140625,0.2335205078125,0.327392578125,32.65380859375,0.0610351525247097,-10.742186546325684
0.9747314453125,0.2664794921875,0.3868408203125,20.202634811401367,-4.21142578125,-11.291502952575684
1.00927734375,0.259033203125,0.341552734375,20.324705123901367,-5.249022960662842,-9.46044921875
1.0096435546875,0.27587890625,0.3792724609375,8.9111328125,-7.934569835662842,-4.0283203125
0.9915771484375,0.2413330078125,0.3770751953125,2.685546636581421,-8.11767578125,-3.723144292831421
0.9970703125,0.2236328125,0.3502197265625,3.479003667831421,-11.047362327575684,0.0
0.939208984375,0.220947265625,0.384033203125,-0.8544921278953552,-11.718749046325684,-1.220703125
0.9185791015625,0.1837158203125,0.379150390625,-1.4038084745407104,-12.695311546325684,-1.9531248807907104
0.89208984375,0.176025390625,0.3990478515625,-4.5166015625,-11.718749046325684,-2.25830078125
0.88671875,0.1639404296875,0.3892822265625,-6.835937023162842,-8.36181640625,-4.45556640625
0.8779296875,0.167236328125,0.3905029296875,-7.446288585662842,-6.530761241912842,-4.150390625
0.86865234375,0.1754150390625,0.4014892578125,-6.469726085662842,-4.8828125,-4.57763671875
0.8843994140625,0.1800537109375,0.3984375,-3.723144292831421,-3.784179449081421,-6.896972179412842
0.8929443359375,0.166748046875,0.41943359375,-2.929687261581421,-2.01416015625,-6.164550304412842
0.9012451171875,0.171630859375,0.41064453125,-3.967284917831421,0.2441406100988388,-6.835937023162842
0.9022216796875,0.1728515625,0.4278564453125,-7.873534679412842,1.5258787870407104,-8.60595703125
0.8995361328125,0.16064453125,0.4180908203125,-8.6669921875,1.8310545682907104,-6.835937023162842
0.89697265625,0.1640625,0.3973388671875,-10.620116233825684,-0.7934569716453552,-8.72802734375
0.8946533203125,0.1414794921875,0.4053955078125,-10.925292015075684,-1.8310545682907104,-8.30078125
0.900390625,0.1385498046875,0.4049072265625,-8.60595703125,-2.13623046875,-5.859374523162842
0.902587890625,0.156494140625,0.384765625,-9.21630859375,-2.38037109375,-5.0048828125
0.9056396484375,0.1492919921875,0.3760986328125,-11.596678733825684,-3.356933355331421,-4.82177734375
0.908203125,0.1527099609375,0.38037109375,-9.21630859375,-2.990722417831421,-2.929687261581421
0.90087890625,0.1593017578125,0.3797607421875,-8.48388671875,-3.967284917831421,-2.746581792831421
0.896484375,0.1455078125,0.3897705078125,-4.57763671875,-2.868652105331421,-2.50244140625
0.8941650390625,0.162109375,0.373046875,-0.2441406100988388,-1.8310545682907104,-3.356933355331421
0.891357421875,0.1640625,0.38720703125,0.54931640625,-2.746581792831421,-3.540038824081421
0.88671875,0.1519775390625,0.3990478515625,1.4648436307907104,-3.356933355331421,-3.356933355331421
0.88427734375,0.14404296875,0.401611328125,1.4648436307907104,-2.746581792831421,-3.601073980331421
0.8924560546875,0.1527099609375,0.3980712890625,1.9531248807907104,-2.197265625,-3.723144292831421
0.8870849609375,0.1474609375,0.41357421875,0.9765624403953552,-2.563476324081421,-3.417968511581421
0.8822021484375,0.14111328125,0.4268798828125,1.9531248807907104,-2.13623046875,-3.479003667831421
0.8909912109375,0.1439208984375,0.4256591796875,3.417968511581421,-2.13623046875,-2.624511480331421
0.891845703125,0.1500244140625,0.4259033203125,1.3427733182907104,-2.50244140625,-2.13623046875
0.8931884765625,0.144287109375,0.428466796875,-1.03759765625,-2.197265625,-2.44140625
0.8955078125,0.1395263671875,0.4376220703125,-1.5869139432907104,-0.6713866591453552,-2.13623046875
0.8927001953125,0.147216796875,0.4190673828125,1.0986328125,-0.1220703050494194,-2.3193359375
0.8846435546875,0.1436767578125,0.430419921875,-0.6713866591453552,-1.220703125,-2.685546636581421
0.8865966796875,0.131103515625,0.4326171875,-0.0610351525247097,-0.9155272841453552,-1.8310545682907104
0.8857421875,0.1361083984375,0.4161376953125,-2.13623046875,-0.9765624403953552,-1.6479490995407104
0.8865966796875,0.133544921875,0.412109375,-1.8310545682907104,-0.9155272841453552,-2.01416015625
0.892578125,0.13525390625,0.41455078125,-1.03759765625,-1.03759765625,-1.7700194120407104
0.890625,0.137939453125,0.41943359375,-0.30517578125,-1.0986328125,-1.2817381620407104
0.8861083984375,0.140625,0.4180908203125,-0.2441406100988388,-1.2817381620407104,-1.15966796875
0.8897705078125,0.1353759765625,0.4185791015625,-0.2441406100988388,-1.4038084745407104,-1.220703125
0.8902587890625,0.1416015625,0.421142578125,0.1831054538488388,-1.5869139432907104,-2.3193359375
0.88720703125,0.1339111328125,0.43310546875,0.54931640625,-1.03759765625,-1.5869139432907104
0.88427734375,0.1309814453125,0.427978515625,0.54931640625,-0.7934569716453552,-1.5869139432907104
0.8839111328125,0.1322021484375,0.427001953125,0.30517578125,-0.9155272841453552,-1.4648436307907104
0.88525390625,0.1280517578125,0.4312744140625,1.03759765625,-1.4038084745407104,-1.2817381620407104
0.8831787109375,0.1290283203125,0.4403076171875,0.4882812201976776,-1.15966796875,-0.8544921278953552
0.882568359375,0.12939453125,0.436279296875,-0.8544921278953552,-1.220703125,-0.7324218153953552
0.8798828125,0.12451171875,0.4371337890625,-0.8544921278953552,-0.7934569716453552,-1.2817381620407104
0.8822021484375,0.1329345703125,0.4381103515625,-0.1831054538488388,-0.7324218153953552,-0.9765624403953552
0.882568359375,0.1287841796875,0.438232421875,-0.6713866591453552,-0.9155272841453552,-1.03759765625
0.8863525390625,0.1329345703125,0.4368896484375,-0.7324218153953552,-0.6103515625,-1.2817381620407104
0.889404296875,0.1312255859375,0.438720703125,-1.6479490995407104,-0.6103515625,-1.220703125
0.889404296875,0.1326904296875,0.4327392578125,-1.15966796875,-0.4882812201976776,-1.5258787870407104
0.888671875,0.13427734375,0.435302734375,-1.8920897245407104,-0.7934569716453552,-0.9155272841453552
1.5911865234375,0.480224609375,0.6944580078125,-52.185054779052734,7.019042491912842,24.047849655151367
1.95703125,0.7645263671875,0.835693359375,-98.63280487060547,22.766111373901367,49.560543060302734
2.15380859375,0.7061767578125,0.521240234375,-108.45946502685547,41.259761810302734,48.400875091552734
1.921630859375,0.5316162109375,0.5172119140625,-99.12108612060547,36.68212890625,30.944822311401367
1.4674072265625,0.342529296875,0.3104248046875,-66.650390625,8.97216796875,-22.460935592651367
0.9661865234375,0.14404296875,0.2691650390625,-46.447750091552734,-30.273435592651367,-81.05467987060547
0.2733154296875,-0.07421875,0.2462158203125,13.183592796325684,-57.312007904052734,-135.1318359375
-0.1231689453125,0.021240234375,0.0379638671875,33.87451171875,-68.05419921875,-174.56053161621094
-0.4815673828125,-0.15478515625,0.1622314453125,16.2353515625,-70.6787109375,-181.33543395996094
-0.1448974609375,-0.122802734375,0.14453125,1.5869139432907104,-47.302242279052734,-135.68115234375
0.225830078125,-0.2767333984375,0.1678466796875,10.253905296325684,-7.385253429412842,-67.87109375
0.59912109375,-0.197509765625,0.164306640625,-4.2724609375,4.08935546875,29.724119186401367
0.7603759765625,0.4591064453125,0.2958984375,38.26904296875,6.286620616912842,33.935546875
0.94140625,-0.075439453125,0.406982421875,15.563963890075684,1.03759765625,23.925779342651367
0.9359130859375,-0.128173828125,0.400390625,-13.488768577575684,-8.48388671875,20.690916061401367
0.9222412109375,-0.0665283203125,0.4700927734375,-10.803221702575684,-7.812499523162842,14.038084983825684
0.9144287109375,-0.01416015625,0.47216796875,-15.869139671325684,-9.765625,9.033203125
0.92822265625,-0.0155029296875,0.3685302734375,-6.896972179412842,-8.4228515625,1.6479490995407104
0.8509521484375,-0.0345458984375,0.4248046875,-2.38037109375,-6.896972179412842,0.7934569716453552
0.8184814453125,0.0211181640625,0.4429931640625,5.249022960662842,-5.371093273162842,1.7700194120407104
0.8065185546875,-0.0078125,0.396240234375,16.7236328125,-1.7700194120407104,15.747069358825684
0.6959228515625,0.048095703125,0.3956298828125,11.962889671325684,2.01416015625,25.268552780151367
0.662841796875,0.00048828125,0.3466796875,17.15087890625,9.765625,39.6728515625
0.5654296875,0.03466796875,0.392333984375,12.695311546325684,16.41845703125,58.044429779052734
0.5965576171875,0.111083984375,0.2464599609375,39.73388671875,23.620603561401367,75.8056640625
0.5960693359375,0.063720703125,0.3525390625,16.66259765625,18.06640625,75.50048828125
0.687744140625,0.0704345703125,0.314697265625,14.282225608825684,29.785154342651367,70.86181640625
0.7939453125,0.0928955078125,0.4273681640625,1.3427733182907104,20.080564498901367,60.668941497802734
0.9212646484375,0.174560546875,0.3419189453125,15.502928733825684,26.977537155151367,50.354000091552734
0.9910888671875,0.1934814453125,0.3309326171875,23.559568405151367,16.78466796875,41.625972747802734
0.8929443359375,0.19482421875,0.388916015625,12.573241233825684,17.2119140625,29.418943405151367
1.0162353515625,0.1907958984375,0.3760986328125,13.671874046325684,7.690429210662842,23.071287155151367
0.8828125,0.2222900390625,0.4332275390625,7.446288585662842,8.72802734375,16.6015625
1.0089111328125,0.2088623046875,0.2982177734375,17.02880859375,7.812499523162842,14.160155296325684
0.89453125,0.229248046875,0.37646484375,3.234863042831421,5.615233898162842,7.446288585662842
1.030517578125,0.2381591796875,0.287353515625,-0.1831054538488388,2.44140625,4.0283203125
0.9736328125,0.2596435546875,0.409912109375,-9.09423828125,0.3662109076976776,-0.30517578125
1.03271484375,0.2469482421875,0.34765625,10.192870140075684,2.929687261581421,0.9155272841453552
0.9989013671875,0.2606201171875,0.3466796875,12.145995140075684,-0.6713866591453552,-3.356933355331421
1.020263671875,0.2625732421875,0.3310546875,18.310546875,0.0,-0.4272460639476776
1.018798828125,0.2454833984375,0.35791015625,10.620116233825684,-6.652831554412842,-0.4272460639476776
0.9951171875,0.2613525390625,0.3863525390625,9.521484375,-7.934569835662842,-2.01416015625
0.9609375,0.2447509765625,0.3533935546875,11.352538108825684,-9.765625,1.4038084745407104
0.98681640625,0.2559814453125,0.3709716796875,1.15966796875,-9.6435546875,-5.187987804412842
0.9371337890625,0.2562255859375,0.390625,-1.6479490995407104,-9.8876953125,-6.896972179412842
0.9522705078125,0.242431640625,0.368896484375,11.779784202575684,-10.375975608825684,-8.9111328125
0.9150390625,0.228759765625,0.3961181640625,15.747069358825684,-12.939452171325684,-11.779784202575684
0.9384765625,0.2464599609375,0.4156494140625,27.038572311401367,-13.244627952575684,-11.657713890075684
0.95703125,0.2161865234375,0.4183349609375,20.751951217651367,-15.686034202575684,-13.732909202575684
0.9862060546875,0.2080078125,0.4498291015625,13.732909202575684,-14.831542015075684,-14.282225608825684
0.9678955078125,0.1917724609375,0.5306396484375,3.784179449081421,-12.939452171325684,-14.343260765075684
0.9495849609375,0.19921875,0.48681640625,10.192870140075684,-6.652831554412842,-11.901854515075684
0.9278564453125,0.1519775390625,0.44287109375,-5.676269054412842,-8.36181640625,-11.108397483825684
0.90771484375,0.1529541015625,0.5146484375,-5.737304210662842,-7.873534679412842,-6.408690929412842
0.89892578125,0.13916015625,0.468017578125,2.929687261581421,-7.141112804412842,-5.126952648162842
0.88818359375,0.156005859375,0.4715576171875,3.845214605331421,-8.11767578125,-4.45556640625
0.8780517578125,0.13720703125,0.4769287109375,0.7324218153953552,-5.859374523162842,-3.417968511581421
0.876953125,0.13671875,0.4703369140625,-4.2724609375,-2.685546636581421,-2.25830078125
0.865966796875,0.1488037109375,0.4683837890625,-8.9111328125,0.8544921278953552,-2.868652105331421
0.8741455078125,0.1588134765625,0.4505615234375,-7.385253429412842,1.7700194120407104,-2.50244140625
0.8856201171875,0.15380859375,0.4493408203125,-4.69970703125,-0.1831054538488388,-3.967284917831421
0.88671875,0.14208984375,0.4669189453125,-5.249022960662842,-0.9765624403953552,-2.990722417831421
0.8857421875,0.139404296875,0.4599609375,-3.356933355331421,-1.5869139432907104,-0.1220703050494194
0.8812255859375,0.1427001953125,0.4552001953125,-3.967284917831421,-1.2817381620407104,0.9765624403953552
0.879150390625,0.1553955078125,0.445556640625,-5.859374523162842,-1.15966796875,0.54931640625
0.8701171875,0.1611328125,0.4539794921875,-8.48388671875,-2.13623046875,0.6713866591453552
0.860107421875,0.1478271484375,0.4302978515625,-7.446288585662842,-2.25830078125,-0.30517578125
0.86376953125,0.1551513671875,0.4510498046875,-4.2724609375,-1.15966796875,-0.1220703050494194
0.8668212890625,0.1572265625,0.4385986328125,-3.662109136581421,-0.1831054538488388,-1.220703125
0.8675537109375,0.1552734375,0.4359130859375,-3.784179449081421,0.30517578125,-0.30517578125
0.882080078125,0.1693115234375,0.45849609375,-3.540038824081421,0.54931640625,-0.6103515625
0.8741455078125,0.16162109375,0.4437255859375,-0.8544921278953552,1.9531248807907104,0.1831054538488388
0.871826171875,0.1650390625,0.4383544921875,-0.4272460639476776,1.5869139432907104,0.7934569716453552
0.8631591796875,0.1566162109375,0.443603515625,-0.0610351525247097,1.03759765625,0.30517578125
0.86767578125,0.1578369140625,0.443115234375,0.9765624403953552,0.4272460639476776,-0.6103515625
0.885986328125,0.1636962890625,0.4432373046875,2.25830078125,-0.6103515625,-0.1831054538488388
0.864990234375,0.1629638671875,0.453125,0.1220703050494194,-2.197265625,0.1220703050494194
0.8677978515625,0.15234375,0.447265625,1.15966796875,-2.807616949081421,-0.4272460639476776
0.8673095703125,0.1630859375,0.4617919921875,0.9765624403953552,-3.234863042831421,-1.03759765625
0.8665771484375,0.1656494140625,0.4638671875,1.5869139432907104,-2.44140625,-0.4272460639476776
0.8724365234375,0.1580810546875,0.456787109375,-1.0986328125,-1.8920897245407104,-0.30517578125
0.8658447265625,0.158935546875,0.467529296875,0.1220703050494194,-1.15966796875,-0.7324218153953552
0.8668212890625,0.164306640625,0.469482421875,1.15966796875,-1.15966796875,-0.1220703050494194
0.863525390625,0.1563720703125,0.470703125,0.4882812201976776,-1.4648436307907104,0.1220703050494194
0.8587646484375,0.15478515625,0.4832763671875,0.0610351525247097,-1.7700194120407104,-1.15966796875
0.850830078125,0.1578369140625,0.469482421875,-1.6479490995407104,-1.4038084745407104,-0.3662109076976776
0.859375,0.161376953125,0.4637451171875,-3.662109136581421,-2.197265625,0.4272460639476776
0.855224609375,0.1444091796875,0.464599609375,-2.807616949081421,-1.7089842557907104,-0.9765624403953552
0.854248046875,0.1561279296875,0.4635009765625,-0.3662109076976776,-1.2817381620407104,-2.25830078125
0.8558349609375,0.1639404296875,0.466552734375,0.7934569716453552,-1.220703125,-0.9765624403953552
0.86474609375,0.1644287109375,0.482421875,-0.3662109076976776,-0.9155272841453552,-2.0751953125
0.8631591796875,0.1534423828125,0.4754638671875,0.0610351525247097,-0.6103515625,-1.03759765625
0.85986328125,0.1690673828125,0.4801025390625,-0.1220703050494194,-0.4272460639476776,-0.1831054538488388
0.8565673828125,0.15087890625,0.474365234375,-0.0610351525247097,-0.54931640625,-0.54931640625
0.8524169921875,0.150634765625,0.4732666015625,0.4272460639476776,-0.30517578125,-2.01416015625
0.84619140625,0.151611328125,0.4910888671875,-0.2441406100988388,-0.1220703050494194,-1.5869139432907104
0.8583984375,0.1661376953125,0.4674072265625,0.0,-0.30517578125,-0.3662109076976776
0.8687744140625,0.1588134765625,0.475830078125,-2.624511480331421,-2.01416015625,-1.6479490995407104
0.8646240234375,0.1546630859375,0.4871826171875,-1.0986328125,-0.4272460639476776,-1.15966796875
0.865966796875,0.166015625,0.46923828125,-1.4038084745407104,0.1831054538488388,-0.4272460639476776
