aX,aY,aZ,gX,gY,gZ
-0.25048828125,1.92431640625,-0.518798828125,-33.50830078125,-23.742673873901367,-139.09912109375
-0.290771484375,2.07177734375,-0.5174560546875,-37.29248046875,-50.292964935302734,-230.95701599121094
-0.197021484375,1.8936767578125,-0.438720703125,8.23974609375,-80.13916015625,-303.7109375
0.1505126953125,1.4737548828125,-0.486328125,79.28466796875,-109.00878143310547,-343.6889343261719
0.2545166015625,0.8089599609375,-0.465087890625,85.93749237060547,-128.2958984375,-340.1488952636719
-0.1331787109375,0.308837890625,-0.0697021484375,70.37353515625,-119.87303924560547,-338.9281921386719
-0.2142333984375,-0.05615234375,0.0767822265625,80.56639862060547,-99.42626190185547,-306.640625
0.07763671875,-0.13037109375,0.1337890625,35.82763671875,-79.28466796875,-255.12693786621094
0.2510986328125,-0.1561279296875,0.30078125,-9.70458984375,-50.598140716552734,-200.80564880371094
0.622802734375,-0.3194580078125,0.263671875,-4.638671875,-32.8369140625,-139.22119140625
0.747314453125,-0.3057861328125,0.3997802734375,5.249022960662842,-21.850584030151367,-78.369140625
0.92041015625,-0.3331298828125,0.396484375,18.98193359375,-15.380858421325684,-40.466304779052734
0.9854736328125,-0.4951171875,0.48193359375,23.498533248901367,-8.30078125,-20.874021530151367
1.012939453125,-0.4222412109375,0.4984130859375,21.789548873901367,-2.25830078125,-12.451170921325684
0.923828125,-0.30224609375,0.4583740234375,6.286620616912842,3.356933355331421,-8.11767578125
0.9180908203125,-0.31591796875,0.3211669921875,4.21142578125,4.638671875,0.3662109076976776
0.88037109375,-0.2364501953125,0.336669921875,4.638671875,3.784179449081421,2.563476324081421
0.944580078125,-0.1885986328125,0.3372802734375,6.408690929412842,2.990722417831421,5.859374523162842
0.9398193359375,-0.1878662109375,0.31396484375,3.051757574081421,1.6479490995407104,4.21142578125
0.931396484375,-0.2037353515625,0.3179931640625,-1.7089842557907104,1.7700194120407104,3.234863042831421
0.9317626953125,-0.178466796875,0.3028564453125,-10.314940452575684,2.0751953125,2.197265625
0.92041015625,-0.1717529296875,0.30810546875,-7.202147960662842,1.220703125,1.8920897245407104
0.9393310546875,-0.197021484375,0.2657470703125,-2.868652105331421,1.03759765625,4.82177734375
0.9324951171875,-0.1822509765625,0.3226318359375,-5.859374523162842,0.0,6.408690929412842
0.8974609375,-0.1890869140625,0.3087158203125,-1.6479490995407104,2.44140625,13.793944358825684
0.946044921875,-0.1627197265625,0.295166015625,-2.563476324081421,1.4648436307907104,19.1650390625
0.928466796875,-0.1630859375,0.328857421875,0.6713866591453552,3.112792730331421,20.690916061401367
0.9697265625,-0.128662109375,0.2919921875,-2.44140625,4.82177734375,22.338865280151367
0.9517822265625,-0.082275390625,0.3118896484375,-9.27734375,2.563476324081421,15.502928733825684
0.948974609375,-0.0791015625,0.2825927734375,-8.11767578125,3.784179449081421,13.549803733825684
0.95263671875,-0.0614013671875,0.266357421875,-11.169432640075684,0.0610351525247097,9.1552734375
0.92138671875,-0.0750732421875,0.3035888671875,-7.812499523162842,1.9531248807907104,13.732909202575684
0.902587890625,-0.087890625,0.2979736328125,-0.30517578125,4.5166015625,23.254392623901367
0.9290771484375,-0.068603515625,0.28271484375,6.896972179412842,4.2724609375,31.982419967651367
0.915283203125,-0.0963134765625,0.3031005859375,8.7890625,5.920409679412842,42.785640716552734
0.9193115234375,-0.0614013671875,0.301513671875,6.408690929412842,10.314940452575684,53.344722747802734
0.9107666015625,-0.057861328125,0.28466796875,4.69970703125,12.695311546325684,63.476558685302734
0.8792724609375,-0.0291748046875,0.2823486328125,-0.9765624403953552,15.563963890075684,74.64599609375
0.8336181640625,0.026611328125,0.2647705078125,-8.36181640625,18.1884765625,90.27098846435547
0.80810546875,0.0863037109375,0.2459716796875,-14.526366233825684,24.597166061401367,102.47801971435547
0.8046875,0.155029296875,0.2200927734375,-30.822751998901367,30.334470748901367,112.48778533935547
0.778076171875,0.2452392578125,0.1802978515625,-45.593257904052734,34.912109375,119.01854705810547
0.7635498046875,0.3804931640625,0.1280517578125,-44.860836029052734,40.344234466552734,124.57274627685547
0.7545166015625,0.5462646484375,0.0972900390625,-36.0107421875,39.97802734375,125.36620330810547
0.7547607421875,0.5213623046875,-0.0357666015625,-41.564937591552734,30.883787155151367,124.69481658935547
0.6915283203125,0.6759033203125,0.0574951171875,-34.11865234375,28.930662155151367,121.15477752685547
0.6043701171875,0.6715087890625,0.02099609375,-15.747069358825684,32.470703125,120.30028533935547
0.5330810546875,0.7830810546875,-0.02587890625,-4.94384765625,31.616209030151367,119.68993377685547
0.531494140625,0.885498046875,-0.080810546875,-9.33837890625,28.625486373901367,113.64745330810547
0.4239501953125,0.871337890625,-0.04150390625,-16.05224609375,28.564451217651367,109.80223846435547
0.4085693359375,0.988037109375,-0.0535888671875,-15.563963890075684,29.602048873901367,104.79735565185547
0.328857421875,0.989501953125,-0.0892333984375,-14.709471702575684,29.968259811401367,98.51073455810547
0.2847900390625,1.0482177734375,-0.087158203125,-10.131834983825684,29.846189498901367,89.11132049560547
0.236328125,1.083251953125,-0.14404296875,1.9531248807907104,26.977537155151367,78.857421875
0.1990966796875,1.098388671875,-0.1142578125,-4.82177734375,21.728513717651367,66.46728515625
0.1248779296875,1.0181884765625,-0.0806884765625,3.356933355331421,22.216794967651367,59.631343841552734
0.10205078125,1.0528564453125,-0.1182861328125,7.019042491912842,20.812986373901367,51.818843841552734
0.0833740234375,1.0126953125,-0.11279296875,5.920409679412842,17.27294921875,55.297847747802734
0.044189453125,1.011962890625,-0.082275390625,-0.4272460639476776,16.6015625,49.194332122802734
0.02587890625,1.0025634765625,-0.08447265625,2.563476324081421,17.578125,54.138179779052734
-0.0247802734375,1.0087890625,-0.09228515625,0.0,20.263669967651367,46.142574310302734
-0.0390625,1.0467529296875,-0.1279296875,0.4272460639476776,19.95849609375,44.616695404052734
-0.076416015625,1.03955078125,-0.122314453125,-0.54931640625,18.06640625,38.51318359375
-0.0888671875,1.037109375,-0.10595703125,-2.0751953125,16.11328125,31.616209030151367
-0.12451171875,1.028076171875,-0.11279296875,-0.6713866591453552,13.244627952575684,26.367185592651367
-0.1136474609375,1.02880859375,-0.131591796875,-6.591796398162842,9.3994140625,24.536130905151367
-0.1448974609375,1.0101318359375,-0.1202392578125,-12.451170921325684,7.324218273162842,16.66259765625
-0.199951171875,0.9754638671875,-0.1126708984375,-9.33837890625,5.432128429412842,14.526366233825684
-0.170654296875,0.9796142578125,-0.12109375,-9.033203125,3.723144292831421,17.51708984375
-0.1893310546875,0.9827880859375,-0.104736328125,-8.97216796875,-0.4882812201976776,14.221190452575684
-0.18701171875,0.9815673828125,-0.1480712890625,2.13623046875,1.6479490995407104,15.686034202575684
-0.1781005859375,0.9757080078125,-0.128173828125,-7.080077648162842,0.54931640625,10.498045921325684
-0.2254638671875,0.9466552734375,-0.1575927734375,-2.50244140625,1.03759765625,7.995604991912842
-0.214111328125,0.97412109375,-0.14453125,-0.54931640625,1.15966796875,7.141112804412842
-0.2230224609375,0.977294921875,-0.1485595703125,0.0,-0.7934569716453552,3.356933355331421
-0.2269287109375,0.9609375,-0.14208984375,0.0610351525247097,-1.2817381620407104,1.5869139432907104
-0.2310791015625,0.9554443359375,-0.1507568359375,-0.4272460639476776,-1.15966796875,0.6713866591453552
-0.2177734375,0.9708251953125,-0.1533203125,-1.8920897245407104,-2.13623046875,-0.2441406100988388
-0.2236328125,0.955810546875,-0.141357421875,-2.25830078125,-2.990722417831421,-2.25830078125
-0.2196044921875,0.9542236328125,-0.1363525390625,0.30517578125,-2.44140625,-1.8920897245407104
-0.2139892578125,0.955078125,-0.150146484375,-0.7934569716453552,-3.112792730331421,-0.9765624403953552
-0.2205810546875,0.9608154296875,-0.140380859375,-0.7324218153953552,-1.8920897245407104,-1.3427733182907104
-0.2142333984375,0.96240234375,-0.14794921875,-0.9155272841453552,-1.5869139432907104,-0.3662109076976776
-0.2158203125,0.9593505859375,-0.1422119140625,-2.3193359375,-0.9765624403953552,-0.6103515625
-0.211669921875,0.964111328125,-0.14306640625,1.15966796875,-0.0610351525247097,-0.3662109076976776
-0.2083740234375,0.9593505859375,-0.1492919921875,-0.7934569716453552,-0.2441406100988388,-0.6103515625
-0.2154541015625,0.956787109375,-0.1455078125,0.7324218153953552,-0.3662109076976776,-0.6103515625
-0.21044921875,0.9588623046875,-0.15234375,0.0610351525247097,-1.15966796875,-0.9765624403953552
-0.2257080078125,0.94775390625,-0.14208984375,-0.8544921278953552,-0.9155272841453552,-0.9765624403953552
-0.2080078125,0.9588623046875,-0.1583251953125,0.2441406100988388,-1.0986328125,-0.9155272841453552
-0.212158203125,0.960205078125,-0.1463623046875,0.2441406100988388,-1.6479490995407104,-1.0986328125
-0.2098388671875,0.958984375,-0.1435546875,2.685546636581421,-1.7089842557907104,-0.1220703050494194
-0.2054443359375,0.95458984375,-0.14990234375,2.01416015625,-2.197265625,-0.6713866591453552
-0.201416015625,0.9581298828125,-0.145263671875,0.30517578125,-2.13623046875,-0.9155272841453552
-0.21484375,0.957275390625,-0.14794921875,0.9155272841453552,-1.7089842557907104,0.0610351525247097
-0.2259521484375,0.9561767578125,-0.139404296875,-0.7324218153953552,-1.3427733182907104,-0.6713866591453552
-0.2113037109375,0.9539794921875,-0.152587890625,1.6479490995407104,-1.2817381620407104,-0.9155272841453552
-0.2135009765625,0.9609375,-0.1431884765625,0.2441406100988388,-1.0986328125,-1.15966796875
-0.211181640625,0.9564208984375,-0.149658203125,2.197265625,-0.7324218153953552,-0.9765624403953552
-0.2135009765625,0.959716796875,-0.1400146484375,1.8310545682907104,-0.9765624403953552,-1.4648436307907104
-0.3438720703125,1.9110107421875,-0.437744140625,-35.33935546875,-31.249998092651367,-132.62939453125
-0.3597412109375,2.0009765625,-0.4351806640625,-26.977537155151367,-61.523433685302734,-253.35691833496094
-0.212646484375,1.837646484375,-0.4227294921875,29.052732467651367,-86.30370330810547,-317.0166015625
0.221923828125,1.6739501953125,-0.660400390625,102.23387908935547,-133.36181640625,-353.9428405761719
0.0975341796875,0.7283935546875,-0.2200927734375,65.00244140625,-146.6064453125,-364.9902038574219
-0.121337890625,0.148193359375,0.0159912109375,99.12108612060547,-130.37109375,-357.1777038574219
-0.1732177734375,-0.1478271484375,0.169677734375,73.6083984375,-106.87255096435547,-335.9374694824219
-0.161376953125,-0.4044189453125,0.1669921875,36.31591796875,-70.98388671875,-266.90673828125
0.2159423828125,-0.3095703125,0.3533935546875,-3.295898199081421,-43.029781341552734,-183.77684020996094
0.5970458984375,-0.3143310546875,0.349365234375,-16.357421875,-26.184080123901367,-127.62450408935547
0.7542724609375,-0.330322265625,0.4539794921875,12.878417015075684,-14.892577171325684,-64.14794921875
0.950927734375,-0.281494140625,0.4871826171875,23.132322311401367,-8.056640625,-25.634763717651367
1.0242919921875,-0.3778076171875,0.436767578125,16.7236328125,-0.30517578125,-18.06640625
0.9490966796875,-0.257080078125,0.4859619140625,2.3193359375,3.112792730331421,-15.380858421325684
0.937255859375,-0.233642578125,0.33984375,1.9531248807907104,4.08935546875,-9.8876953125
0.8990478515625,-0.201416015625,0.3385009765625,3.967284917831421,2.807616949081421,-6.530761241912842
0.9117431640625,-0.1693115234375,0.345947265625,-0.54931640625,2.685546636581421,-3.723144292831421
0.92919921875,-0.167724609375,0.32275390625,-1.4038084745407104,-1.03759765625,-3.234863042831421
0.91650390625,-0.1766357421875,0.366455078125,-4.08935546875,-0.7324218153953552,-0.1831054538488388
0.9259033203125,-0.1641845703125,0.3388671875,0.4882812201976776,1.4648436307907104,2.563476324081421
0.9383544921875,-0.2001953125,0.3587646484375,-3.540038824081421,1.2817381620407104,1.5258787870407104
0.9005126953125,-0.181640625,0.3375244140625,5.0048828125,4.08935546875,6.164550304412842
0.931640625,-0.1480712890625,0.3250732421875,1.15966796875,3.540038824081421,9.8876953125
0.91796875,-0.1793212890625,0.3328857421875,0.0610351525247097,2.868652105331421,12.878417015075684
0.915283203125,-0.152099609375,0.340576171875,-2.44140625,4.57763671875,19.22607421875
0.9263916015625,-0.1561279296875,0.318359375,-0.4272460639476776,5.432128429412842,24.230955123901367
0.9224853515625,-0.1331787109375,0.3714599609375,-1.4038084745407104,5.126952648162842,29.602048873901367
0.9456787109375,-0.1427001953125,0.29931640625,7.629394054412842,11.535643577575684,35.5224609375
0.925537109375,-0.1463623046875,0.304443359375,-0.7934569716453552,9.09423828125,39.97802734375
0.884033203125,-0.049560546875,0.3280029296875,-2.3193359375,11.962889671325684,50.415035247802734
0.894775390625,-0.0263671875,0.2896728515625,0.54931640625,14.831542015075684,60.729976654052734
0.870361328125,-0.0137939453125,0.262939453125,-5.615233898162842,16.9677734375,70.98388671875
0.8487548828125,0.025634765625,0.2755126953125,-6.652831554412842,19.8974609375,79.52880859375
0.84619140625,0.0704345703125,0.2218017578125,-3.662109136581421,25.634763717651367,90.94237518310547
0.887939453125,0.1484375,0.218994140625,-20.690916061401367,23.925779342651367,97.65624237060547
0.8599853515625,0.1964111328125,0.2320556640625,-31.799314498901367,32.8369140625,99.18212127685547
0.875244140625,0.2774658203125,0.1962890625,-36.865234375,35.46142578125,100.95214080810547
0.800048828125,0.4278564453125,0.1307373046875,-27.465818405151367,40.283199310302734,101.50145721435547
0.841796875,0.4881591796875,0.0748291015625,-29.968259811401367,35.400390625,101.56249237060547
0.736572265625,0.557373046875,0.08251953125,-26.000974655151367,37.2314453125,99.91454315185547
0.735595703125,0.5950927734375,0.0267333984375,-15.563963890075684,39.36767578125,99.18212127685547
0.69140625,0.6923828125,-0.0009765625,-14.526366233825684,38.87939453125,96.43553924560547
0.6534423828125,0.765625,-0.0269775390625,-13.732909202575684,37.2314453125,92.22411346435547
0.58544921875,0.70263671875,-0.0411376953125,-9.70458984375,36.19384765625,90.08788299560547
0.530517578125,0.802490234375,-0.0509033203125,-2.197265625,35.58349609375,86.73094940185547
0.5152587890625,0.8411865234375,-0.07421875,0.7324218153953552,31.799314498901367,87.03612518310547
0.5020751953125,0.9149169921875,-0.0889892578125,-4.150390625,28.686521530151367,83.55712127685547
0.425048828125,0.862060546875,-0.0792236328125,-4.150390625,29.296873092651367,83.31298065185547
0.3839111328125,0.9365234375,-0.10693359375,-6.103515148162842,28.564451217651367,82.21434783935547
0.3138427734375,0.98193359375,-0.1473388671875,-7.812499523162842,24.414060592651367,76.5380859375
0.268798828125,1.0257568359375,-0.155517578125,-13.305663108825684,19.95849609375,68.42041015625
0.247314453125,1.069580078125,-0.13916015625,-18.37158203125,16.17431640625,60.607906341552734
0.2254638671875,1.0128173828125,-0.14013671875,-17.39501953125,14.282225608825684,54.260250091552734
0.2117919921875,1.0302734375,-0.162841796875,-10.253905296325684,13.366698265075684,49.743648529052734
0.1749267578125,0.968017578125,-0.1806640625,-6.225585460662842,12.329100608825684,49.621578216552734
0.155029296875,0.97021484375,-0.17822265625,-4.0283203125,12.939452171325684,51.879878997802734
0.0938720703125,0.9830322265625,-0.1776123046875,-2.868652105331421,12.329100608825684,50.048824310302734
0.035400390625,0.9627685546875,-0.18212890625,-9.70458984375,11.779784202575684,55.541988372802734
0.0045166015625,0.9998779296875,-0.1885986328125,-10.925292015075684,12.023924827575684,51.696773529052734
-0.01318359375,1.006103515625,-0.203125,-17.63916015625,10.986327171325684,44.433589935302734
-0.0648193359375,0.9801025390625,-0.1829833984375,-16.90673828125,11.474608421325684,40.649410247802734
-0.0906982421875,0.968994140625,-0.2177734375,-6.713866710662842,13.366698265075684,39.48974609375
-0.1258544921875,0.9622802734375,-0.2388916015625,-1.9531248807907104,13.610838890075684,42.663570404052734
-0.1331787109375,0.971435546875,-0.2286376953125,0.1220703050494194,16.54052734375,35.09521484375
-0.1578369140625,0.9693603515625,-0.2296142578125,1.8920897245407104,17.9443359375,32.958984375
-0.171142578125,0.9727783203125,-0.2271728515625,5.249022960662842,22.338865280151367,32.40966796875
-0.1883544921875,0.99072265625,-0.237548828125,5.981444835662842,21.057126998901367,31.311033248901367
-0.2708740234375,0.9854736328125,-0.2381591796875,9.8876953125,16.54052734375,28.747556686401367
-0.2674560546875,0.9599609375,-0.189453125,8.23974609375,13.244627952575684,25.451658248901367
-0.261474609375,0.93896484375,-0.1864013671875,6.958007335662842,6.713866710662842,21.545408248901367
-0.3087158203125,0.9454345703125,-0.1728515625,4.33349609375,3.906249761581421,17.578125
-0.2943115234375,0.9749755859375,-0.191650390625,-3.723144292831421,-1.7089842557907104,15.258788108825684
-0.32568359375,0.94873046875,-0.185791015625,-2.50244140625,-5.798339366912842,10.314940452575684
-0.3262939453125,0.94140625,-0.1962890625,-0.30517578125,-8.23974609375,7.446288585662842
-0.3153076171875,0.9547119140625,-0.198974609375,4.7607421875,-9.1552734375,2.44140625
-0.3050537109375,0.93798828125,-0.1995849609375,9.27734375,-8.4228515625,-0.1831054538488388
-0.3323974609375,0.926025390625,-0.158935546875,6.591796398162842,-8.48388671875,-0.9155272841453552
-0.2939453125,0.9228515625,-0.1844482421875,6.042479991912842,-7.507323741912842,-1.4648436307907104
-0.2926025390625,0.9268798828125,-0.17138671875,0.6103515625,-5.615233898162842,0.6103515625
-0.3050537109375,0.927734375,-0.1617431640625,-2.746581792831421,-4.08935546875,-0.3662109076976776
-0.291259765625,0.923095703125,-0.1790771484375,-1.6479490995407104,-1.6479490995407104,-1.0986328125
-0.30517578125,0.9381103515625,-0.1640625,-1.7089842557907104,1.220703125,-0.4882812201976776
-0.2957763671875,0.9447021484375,-0.186279296875,-0.7934569716453552,-0.1220703050494194,-1.7089842557907104
-0.2921142578125,0.935791015625,-0.1688232421875,-0.8544921278953552,-0.6713866591453552,-0.4882812201976776
-0.294189453125,0.9320068359375,-0.1666259765625,-1.5258787870407104,-0.2441406100988388,-1.0986328125
-0.2796630859375,0.9151611328125,-0.1881103515625,-3.723144292831421,0.9155272841453552,0.9155272841453552
-0.298583984375,0.9356689453125,-0.190673828125,-2.685546636581421,1.2817381620407104,1.6479490995407104
-0.3013916015625,0.940185546875,-0.1998291015625,-3.173827886581421,-1.2817381620407104,0.2441406100988388
-0.3013916015625,0.9241943359375,-0.1966552734375,-1.2817381620407104,-2.197265625,-1.5869139432907104
-0.3009033203125,0.9373779296875,-0.1839599609375,-1.8310545682907104,-2.01416015625,-2.807616949081421
-0.3038330078125,0.9344482421875,-0.195556640625,0.9155272841453552,-2.197265625,-2.685546636581421
-0.287109375,0.9337158203125,-0.1939697265625,-1.5869139432907104,-2.746581792831421,-3.845214605331421
-0.29150390625,0.9273681640625,-0.1815185546875,-1.9531248807907104,-1.5869139432907104,-2.929687261581421
-0.2745361328125,0.9317626953125,-0.1982421875,-1.15966796875,-1.03759765625,-1.220703125
-0.285888671875,0.9268798828125,-0.1873779296875,-2.38037109375,-0.4882812201976776,-0.4882812201976776
-0.2889404296875,0.931396484375,-0.2066650390625,-1.7700194120407104,-0.9155272841453552,-0.54931640625
-0.293212890625,0.9346923828125,-0.2034912109375,-1.6479490995407104,-0.9765624403953552,-2.0751953125
-0.2816162109375,0.9244384765625,-0.203857421875,0.7324218153953552,-1.15966796875,-2.746581792831421
-0.289306640625,0.9315185546875,-0.197265625,0.9155272841453552,-1.220703125,-2.38037109375
-0.2769775390625,0.9405517578125,-0.219482421875,0.1831054538488388,-1.2817381620407104,-1.6479490995407104
0.0386962890625,1.9642333984375,-0.453857421875,-29.968259811401367,-63.110347747802734,-215.57615661621094
0.055908203125,1.615966796875,-0.3272705078125,7.202147960662842,-91.43065643310547,-273.193359375
0.3778076171875,1.4256591796875,-0.456298828125,80.62743377685547,-124.87792205810547,-309.99755859375
0.3951416015625,0.99072265625,-0.4052734375,75.01220703125,-138.97705078125,-321.8993835449219
-0.1156005859375,0.329345703125,-0.04248046875,75.74462890625,-128.60107421875,-327.3925476074219
-0.055419921875,-0.0955810546875,0.08251953125,86.18163299560547,-106.75048065185547,-300.6591796875
-0.052978515625,-0.2137451171875,0.2147216796875,30.700681686401367,-81.11571502685547,-257.38525390625
0.2208251953125,-0.3389892578125,0.338134765625,7.873534679412842,-57.434078216552734,-199.58494567871094
0.5845947265625,-0.3206787109375,0.317626953125,-9.033203125,-35.888671875,-122.07030487060547
0.74755859375,-0.287109375,0.4462890625,-0.30517578125,-20.629880905151367,-67.3828125
0.9874267578125,-0.430419921875,0.5361328125,4.57763671875,-15.319823265075684,-29.296873092651367
0.9832763671875,-0.3525390625,0.51611328125,19.10400390625,-1.9531248807907104,-16.54052734375
1.0013427734375,-0.3509521484375,0.4422607421875,-0.7934569716453552,-0.7934569716453552,-13.916014671325684
0.91748046875,-0.2801513671875,0.4970703125,1.8310545682907104,3.540038824081421,-9.58251953125
0.9180908203125,-0.2587890625,0.3411865234375,9.8876953125,5.615233898162842,-1.6479490995407104
0.897216796875,-0.2528076171875,0.3690185546875,5.737304210662842,2.624511480331421,0.4272460639476776
0.9315185546875,-0.2320556640625,0.3570556640625,-0.4272460639476776,2.746581792831421,8.056640625
0.9420166015625,-0.2218017578125,0.3765869140625,-0.9155272841453552,2.01416015625,10.986327171325684
0.8929443359375,-0.2523193359375,0.3876953125,-2.624511480331421,4.150390625,21.118162155151367
0.9068603515625,-0.2044677734375,0.322509765625,1.4648436307907104,5.798339366912842,32.40966796875
0.912353515625,-0.2039794921875,0.3486328125,-2.0751953125,3.906249761581421,39.36767578125
0.87158203125,-0.146728515625,0.359375,1.220703125,6.835937023162842,48.034664154052734
0.9033203125,-0.1014404296875,0.3251953125,4.33349609375,10.437010765075684,59.875484466552734
0.8829345703125,-0.0546875,0.33447265625,0.2441406100988388,12.207030296325684,65.85693359375
0.8563232421875,-0.036865234375,0.330078125,-2.50244140625,15.869139671325684,75.37841796875
0.8692626953125,0.0364990234375,0.2999267578125,-5.371093273162842,17.63916015625,83.00780487060547
0.8665771484375,0.085693359375,0.3173828125,-13.122557640075684,20.446775436401367,88.13475799560547
0.89501953125,0.154052734375,0.2861328125,-19.10400390625,25.756834030151367,91.73583221435547
0.8743896484375,0.1976318359375,0.2611083984375,-23.925779342651367,26.611326217651367,93.93309783935547
0.803466796875,0.299072265625,0.263427734375,-26.306150436401367,32.77587890625,93.81102752685547
0.81787109375,0.3516845703125,0.195556640625,-21.118162155151367,36.92626953125,98.02245330810547
0.80908203125,0.4637451171875,0.1673583984375,-20.324705123901367,35.46142578125,95.58104705810547
0.7423095703125,0.5089111328125,0.1353759765625,-10.070799827575684,38.87939453125,97.16796112060547
0.741943359375,0.583251953125,0.0885009765625,-7.080077648162842,37.17041015625,95.52001190185547
0.719970703125,0.6708984375,0.101806640625,-3.356933355331421,32.958984375,91.79686737060547
0.6705322265625,0.69970703125,0.072021484375,-5.676269054412842,31.372068405151367,87.70751190185547
0.656982421875,0.7464599609375,0.041748046875,-6.591796398162842,27.343748092651367,83.00780487060547
0.5875244140625,0.7890625,0.0555419921875,-7.629394054412842,24.475095748901367,76.72119140625
0.5775146484375,0.81689453125,-0.001708984375,-9.033203125,23.681638717651367,73.91357421875
0.581787109375,0.82958984375,-0.006591796875,-9.82666015625,20.141599655151367,69.7021484375
0.5103759765625,0.8262939453125,-0.0052490234375,-8.4228515625,21.240232467651367,67.2607421875
0.5455322265625,0.9052734375,-0.0374755859375,-14.465331077575684,17.15087890625,64.39208984375
0.4398193359375,0.8768310546875,-0.0167236328125,-19.22607421875,18.798828125,61.096187591552734
0.43408203125,0.93994140625,-0.068359375,-20.202634811401367,20.202634811401367,57.617183685302734
0.3951416015625,0.9254150390625,-0.080078125,-19.71435546875,18.98193359375,55.053707122802734
0.3740234375,0.96826171875,-0.092529296875,-20.446775436401367,17.88330078125,51.696773529052734
0.3067626953125,0.93408203125,-0.1024169921875,-17.08984375,19.10400390625,48.767086029052734
0.3209228515625,1.016845703125,-0.1622314453125,-14.404295921325684,18.85986328125,43.640132904052734
0.270263671875,0.984130859375,-0.128662109375,-17.76123046875,15.014647483825684,38.6962890625
0.2327880859375,0.9840087890625,-0.1312255859375,-7.690429210662842,15.624999046325684,36.0107421875
0.23974609375,1.0081787109375,-0.1591796875,-5.554198741912842,13.061522483825684,32.65380859375
0.18896484375,0.95556640625,-0.1492919921875,-2.38037109375,11.535643577575684,30.151365280151367
0.184326171875,0.9864501953125,-0.1593017578125,1.8310545682907104,11.291502952575684,29.907224655151367
0.166748046875,0.96484375,-0.156982421875,-2.01416015625,10.314940452575684,29.174802780151367
0.1427001953125,0.9544677734375,-0.1409912109375,-1.5869139432907104,12.268065452575684,30.578611373901367
0.1219482421875,0.9677734375,-0.15966796875,-0.9155272841453552,12.023924827575684,32.8369140625
0.1015625,0.98486328125,-0.1741943359375,-0.6713866591453552,10.009765625,33.75244140625
0.065673828125,0.9752197265625,-0.16357421875,1.03759765625,7.873534679412842,36.62109375
0.035888671875,0.98583984375,-0.1585693359375,-1.3427733182907104,6.835937023162842,31.555173873901367
0.030029296875,0.989501953125,-0.1719970703125,1.6479490995407104,6.713866710662842,30.639646530151367
0.0130615234375,1.0032958984375,-0.173095703125,-2.0751953125,5.187987804412842,26.916501998901367
-0.0164794921875,0.976806640625,-0.1556396484375,0.2441406100988388,5.0048828125,28.137205123901367
-0.0389404296875,0.9583740234375,-0.1563720703125,1.6479490995407104,4.2724609375,37.353515625
-0.056640625,0.994873046875,-0.1470947265625,0.1831054538488388,5.187987804412842,31.311033248901367
-0.0865478515625,0.966552734375,-0.149169921875,-2.3193359375,6.713866710662842,30.517576217651367
-0.1041259765625,0.9793701171875,-0.1593017578125,-0.6103515625,7.568358898162842,30.578611373901367
-0.1026611328125,0.9814453125,-0.1690673828125,-5.493163585662842,8.544921875,29.663084030151367
-0.1463623046875,0.997802734375,-0.176513671875,-3.601073980331421,10.559081077575684,26.000974655151367
-0.1427001953125,1.009765625,-0.1998291015625,-0.6103515625,10.864256858825684,21.423337936401367
-0.169677734375,1.0289306640625,-0.1741943359375,4.638671875,10.131834983825684,15.991209983825684
-0.1944580078125,1.0118408203125,-0.200927734375,-2.13623046875,5.859374523162842,6.042479991912842
-0.2056884765625,0.9930419921875,-0.178955078125,-5.249022960662842,1.8920897245407104,1.15966796875
-0.205078125,0.96728515625,-0.1810302734375,-4.2724609375,-0.9765624403953552,-1.7089842557907104
-0.1773681640625,0.9541015625,-0.189208984375,-2.01416015625,-3.662109136581421,-3.295898199081421
-0.190185546875,0.9473876953125,-0.1744384765625,1.220703125,-4.0283203125,-2.44140625
-0.1796875,0.9561767578125,-0.17041015625,2.624511480331421,-4.0283203125,1.5869139432907104
-0.1837158203125,0.958251953125,-0.1539306640625,1.8310545682907104,-2.563476324081421,2.3193359375
-0.182861328125,0.958984375,-0.1685791015625,0.6713866591453552,-1.5258787870407104,1.03759765625
-0.185302734375,0.9781494140625,-0.1444091796875,-1.5258787870407104,0.6103515625,0.7934569716453552
-0.1856689453125,0.969970703125,-0.1748046875,0.0610351525247097,0.1831054538488388,-0.7934569716453552
-0.1806640625,0.9659423828125,-0.1695556640625,1.5258787870407104,-0.9155272841453552,-1.5869139432907104
-0.1766357421875,0.9534912109375,-0.162109375,2.25830078125,-1.03759765625,-2.25830078125
-0.183837890625,0.9564208984375,-0.1585693359375,2.13623046875,-1.0986328125,-2.13623046875
-0.1690673828125,0.962890625,-0.1739501953125,1.9531248807907104,-0.8544921278953552,-0.8544921278953552
-0.1793212890625,0.9615478515625,-0.1683349609375,-0.3662109076976776,-1.4648436307907104,-0.30517578125
-0.1787109375,0.958984375,-0.16845703125,0.2441406100988388,-1.220703125,0.6713866591453552
-0.1812744140625,0.965576171875,-0.1622314453125,0.7324218153953552,-0.6713866591453552,-0.2441406100988388
-0.1715087890625,0.963623046875,-0.1619873046875,0.6103515625,0.0,-0.30517578125
-0.18359375,0.959716796875,-0.160400390625,2.44140625,0.1220703050494194,-0.54931640625
-0.182861328125,0.9654541015625,-0.1624755859375,2.929687261581421,-1.0986328125,-0.54931640625
-0.1788330078125,0.9642333984375,-0.1593017578125,1.15966796875,-1.9531248807907104,-0.3662109076976776
-0.18212890625,0.9573974609375,-0.1654052734375,0.9155272841453552,-1.6479490995407104,-0.3662109076976776
-0.1729736328125,0.9630126953125,-0.1646728515625,0.6103515625,-0.6103515625,-0.2441406100988388
-0.1787109375,0.96533203125,-0.1580810546875,0.1831054538488388,-0.4272460639476776,-0.2441406100988388
-0.17822265625,0.968505859375,-0.162841796875,0.9765624403953552,-0.1220703050494194,0.9155272841453552
-0.1805419921875,0.96533203125,-0.158447265625,0.30517578125,0.4882812201976776,0.1220703050494194
-0.1876220703125,0.9599609375,-0.156982421875,-0.4882812201976776,0.8544921278953552,-0.2441406100988388
-0.1527099609375,1.85400390625,-0.4932861328125,-40.283199310302734,-48.217769622802734,-143.310546875
-0.231201171875,1.7052001953125,-0.3453369140625,-15.075682640075684,-70.80078125,-217.40721130371094
0.0076904296875,1.5003662109375,-0.4385986328125,32.28759765625,-88.01268768310547,-260.3759765625
0.2401123046875,1.42919921875,-0.56884765625,77.63671875,-115.96678924560547,-275.634765625
0.147705078125,0.9154052734375,-0.33740234375,66.83349609375,-125.30516815185547,-281.43310546875
0.14013671875,0.6468505859375,-0.043701171875,72.08251953125,-115.53954315185547,-279.11376953125
0.242919921875,0.310791015625,0.0401611328125,70.556640625,-94.84862518310547,-269.22607421875
0.2471923828125,0.0562744140625,0.1025390625,56.396480560302734,-75.13427734375,-244.01853942871094
0.3531494140625,0.0013427734375,0.2291259765625,32.04345703125,-65.85693359375,-217.89549255371094
0.4078369140625,-0.0360107421875,0.2462158203125,36.0107421875,-47.424312591552734,-176.39158630371094
0.5882568359375,-0.197265625,0.3441162109375,8.48388671875,-30.822751998901367,-134.33837890625
0.7547607421875,-0.1927490234375,0.3336181640625,20.080564498901367,-15.991209983825684,-89.84374237060547
0.8739013671875,-0.275390625,0.4122314453125,16.2353515625,-10.681151390075684,-55.358882904052734
0.9644775390625,-0.34130859375,0.4356689453125,22.888181686401367,-2.563476324081421,-31.433103561401367
0.96044921875,-0.3465576171875,0.4127197265625,13.488768577575684,0.1831054538488388,-24.291990280151367
0.954345703125,-0.327392578125,0.4136962890625,4.94384765625,2.38037109375,-13.916014671325684
0.9317626953125,-0.293701171875,0.331298828125,4.0283203125,2.50244140625,-3.845214605331421
0.933349609375,-0.2652587890625,0.371337890625,2.929687261581421,1.6479490995407104,4.0283203125
0.9273681640625,-0.2391357421875,0.28515625,-0.54931640625,2.990722417831421,9.70458984375
0.9217529296875,-0.2105712890625,0.3682861328125,-5.981444835662842,0.0,11.840819358825684
0.940673828125,-0.208251953125,0.3311767578125,-6.896972179412842,-0.3662109076976776,16.66259765625
0.9034423828125,-0.1915283203125,0.3455810546875,-8.6669921875,0.1831054538488388,23.681638717651367
0.8780517578125,-0.1595458984375,0.3819580078125,-9.46044921875,2.197265625,34.11865234375
0.8551025390625,-0.1494140625,0.31787109375,1.4038084745407104,8.97216796875,54.077144622802734
0.811279296875,-0.1273193359375,0.3314208984375,2.685546636581421,12.207030296325684,70.4345703125
0.823486328125,-0.0888671875,0.307373046875,4.57763671875,17.15087890625,87.82958221435547
0.8751220703125,-0.0223388671875,0.2705078125,-3.540038824081421,16.29638671875,98.93798065185547
0.8465576171875,0.0908203125,0.3056640625,-18.00537109375,26.367185592651367,101.62352752685547
0.94384765625,0.1722412109375,0.2691650390625,-33.50830078125,31.311033248901367,97.04589080810547
0.8380126953125,0.236328125,0.245361328125,-32.3486328125,36.4990234375,95.21483612060547
0.9027099609375,0.346435546875,0.1722412109375,-25.756834030151367,35.888671875,95.39794158935547
0.83984375,0.4468994140625,0.14404296875,-14.160155296325684,35.2783203125,91.79686737060547
0.7958984375,0.4315185546875,0.1322021484375,-17.08984375,36.43798828125,91.30858612060547
0.7879638671875,0.53662109375,0.103271484375,-8.23974609375,36.62109375,88.74510955810547
0.73681640625,0.5689697265625,0.0662841796875,-6.042479991912842,35.09521484375,88.62303924560547
0.76220703125,0.6878662109375,0.02783203125,-12.084959983825684,31.799314498901367,86.30370330810547
0.722900390625,0.705078125,0.0206298828125,-14.404295921325684,25.878904342651367,79.40673828125
0.638671875,0.7017822265625,0.03271484375,-17.63916015625,25.390623092651367,73.486328125
0.597412109375,0.7554931640625,0.0050048828125,-6.958007335662842,25.817869186401367,71.533203125
0.6470947265625,0.8238525390625,-0.05908203125,-8.1787109375,21.057126998901367,66.2841796875
0.5833740234375,0.799560546875,-0.0487060546875,-7.507323741912842,17.08984375,63.354488372802734
0.573974609375,0.8614501953125,-0.0318603515625,-12.451170921325684,14.404295921325684,61.401363372802734
0.531982421875,0.8250732421875,-0.039794921875,-11.352538108825684,16.2353515625,61.035152435302734
0.49609375,0.8873291015625,-0.0645751953125,-12.878417015075684,18.49365234375,59.814449310302734
0.459716796875,0.8870849609375,-0.10595703125,-14.404295921325684,17.76123046875,58.227535247802734
0.406005859375,0.9351806640625,-0.0975341796875,-12.634276390075684,16.90673828125,55.541988372802734
0.3736572265625,0.9327392578125,-0.1005859375,-14.221190452575684,15.014647483825684,53.222652435302734
0.3326416015625,0.95947265625,-0.1234130859375,-13.305663108825684,16.90673828125,49.255367279052734
0.330322265625,0.989501953125,-0.1470947265625,-15.747069358825684,14.648436546325684,44.860836029052734
0.2835693359375,0.9779052734375,-0.1339111328125,-6.652831554412842,13.244627952575684,43.579097747802734
0.279052734375,0.9937744140625,-0.1640625,-6.164550304412842,12.084959983825684,36.865234375
0.244873046875,0.9661865234375,-0.137451171875,-0.7324218153953552,11.779784202575684,36.92626953125
0.226806640625,0.9620361328125,-0.1409912109375,3.295898199081421,13.061522483825684,36.0107421875
0.190673828125,0.9852294921875,-0.164306640625,2.3193359375,12.817381858825684,36.56005859375
0.171142578125,0.981689453125,-0.171142578125,-0.4272460639476776,10.742186546325684,41.137691497802734
0.1239013671875,0.977294921875,-0.154541015625,-6.042479991912842,11.718749046325684,34.1796875
0.0987548828125,0.98828125,-0.1734619140625,-3.417968511581421,11.535643577575684,32.8369140625
0.0787353515625,1.0032958984375,-0.169189453125,-5.493163585662842,9.521484375,30.212400436401367
0.0469970703125,0.9967041015625,-0.1710205078125,-1.5258787870407104,9.09423828125,34.36279296875
0.041015625,1.004638671875,-0.177734375,5.371093273162842,7.995604991912842,27.648923873901367
0.0347900390625,0.9896240234375,-0.1766357421875,5.493163585662842,6.591796398162842,26.489255905151367
0.008056640625,0.9722900390625,-0.1646728515625,9.3994140625,4.2724609375,29.357908248901367
0.0076904296875,0.977783203125,-0.1661376953125,14.099120140075684,2.50244140625,31.982419967651367
-0.035400390625,0.977783203125,-0.1541748046875,13.916014671325684,1.8920897245407104,34.1796875
-0.05810546875,0.982177734375,-0.1885986328125,15.991209983825684,0.30517578125,35.58349609375
-0.0880126953125,1.004638671875,-0.1727294921875,9.82666015625,1.03759765625,33.203125
-0.13720703125,1.0062255859375,-0.1048583984375,5.676269054412842,2.44140625,29.479978561401367
-0.1611328125,1.0162353515625,-0.1131591796875,-4.7607421875,3.051757574081421,19.10400390625
-0.177978515625,0.999267578125,-0.0906982421875,-9.46044921875,0.9155272841453552,9.6435546875
-0.16943359375,0.980224609375,-0.0860595703125,-7.446288585662842,2.868652105331421,3.479003667831421
-0.1622314453125,0.9561767578125,-0.1282958984375,-1.4038084745407104,-0.1220703050494194,6.347655773162842
-0.165283203125,0.97802734375,-0.124267578125,3.845214605331421,1.220703125,3.417968511581421
-0.1436767578125,0.98583984375,-0.13232421875,-1.15966796875,1.0986328125,2.197265625
-0.1534423828125,0.9849853515625,-0.0965576171875,-3.601073980331421,2.868652105331421,1.4038084745407104
-0.1649169921875,0.9881591796875,-0.1072998046875,-10.131834983825684,5.798339366912842,-0.54931640625
-0.158447265625,1.001220703125,-0.138916015625,-14.038084983825684,6.286620616912842,-1.220703125
-0.1583251953125,1.02197265625,-0.1549072265625,-14.465331077575684,6.408690929412842,-4.0283203125
-0.148193359375,0.956787109375,-0.173095703125,-13.305663108825684,5.249022960662842,-4.150390625
-0.1495361328125,0.9552001953125,-0.1832275390625,-4.33349609375,5.0048828125,-3.417968511581421
-0.141845703125,0.9583740234375,-0.18701171875,-4.94384765625,2.0751953125,-1.8920897245407104
-0.1483154296875,0.96630859375,-0.184326171875,-3.051757574081421,1.2817381620407104,-0.4272460639476776
-0.1536865234375,0.97021484375,-0.1876220703125,-5.187987804412842,-2.01416015625,-2.50244140625
-0.144287109375,0.961669921875,-0.1893310546875,-0.9155272841453552,-3.356933355331421,-1.5869139432907104
-0.1473388671875,0.96435546875,-0.1728515625,-0.3662109076976776,-3.906249761581421,-1.0986328125
-0.1556396484375,0.9552001953125,-0.17626953125,0.7324218153953552,-4.21142578125,-1.4038084745407104
-0.1397705078125,0.968017578125,-0.1805419921875,0.9155272841453552,-4.21142578125,-0.0610351525247097
-0.1539306640625,0.9580078125,-0.1612548828125,-3.295898199081421,-3.295898199081421,-1.03759765625
-0.1436767578125,0.9627685546875,-0.1922607421875,-0.1831054538488388,-2.3193359375,-1.6479490995407104
-0.1490478515625,0.97509765625,-0.1741943359375,-2.746581792831421,-1.8310545682907104,-3.173827886581421
-0.13671875,0.9658203125,-0.188232421875,0.3662109076976776,-2.01416015625,-3.051757574081421
-0.13330078125,0.966796875,-0.18603515625,0.1220703050494194,-1.220703125,-0.8544921278953552
-0.1468505859375,0.95654296875,-0.195068359375,-1.8920897245407104,-1.3427733182907104,-1.220703125
-0.143310546875,0.9600830078125,-0.1983642578125,1.8920897245407104,-0.8544921278953552,-0.6713866591453552
-0.1409912109375,0.96142578125,-0.1888427734375,1.220703125,-0.6103515625,-1.5869139432907104
-0.1480712890625,0.95703125,-0.1905517578125,0.4272460639476776,-0.8544921278953552,-3.112792730331421
-0.13623046875,0.973388671875,-0.186767578125,2.13623046875,-2.01416015625,-2.929687261581421
-0.135009765625,0.9647216796875,-0.1715087890625,1.2817381620407104,-1.3427733182907104,-2.01416015625
-0.1285400390625,0.96435546875,-0.18994140625,2.50244140625,-1.15966796875,-0.9155272841453552
-0.1292724609375,0.9703369140625,-0.1756591796875,0.9155272841453552,-0.7934569716453552,0.1831054538488388
0.082763671875,2.0753173828125,-0.52294921875,-35.888671875,-51.879878997802734,-166.38182067871094
-0.142333984375,1.8634033203125,-0.29833984375,-34.36279296875,-75.01220703125,-222.22898864746094
0.033203125,1.632080078125,-0.337646484375,14.465331077575684,-93.74999237060547,-281.6162109375
0.3255615234375,1.3828125,-0.48291015625,109.98534393310547,-123.04686737060547,-306.7626953125
0.1748046875,0.8173828125,-0.1934814453125,85.26610565185547,-119.99510955810547,-330.9936218261719
-0.0931396484375,0.170166015625,0.0411376953125,124.08446502685547,-90.75926971435547,-323.5473327636719
0.01708984375,-0.087646484375,0.048828125,123.77928924560547,-59.448238372802734,-296.32568359375
0.084716796875,-0.1331787109375,0.186767578125,62.377925872802734,-34.85107421875,-257.32421875
0.2520751953125,-0.3587646484375,0.2125244140625,47.546382904052734,-12.329100608825684,-207.45848083496094
0.638427734375,-0.3165283203125,0.0947265625,39.306640625,-7.690429210662842,-133.4228515625
0.7083740234375,-0.4295654296875,0.3424072265625,51.574703216552734,-3.356933355331421,-59.265132904052734
0.953125,-0.474853515625,0.3240966796875,43.090816497802734,-6.591796398162842,-19.775390625
1.01416015625,-0.5159912109375,0.3582763671875,25.817869186401367,-4.7607421875,-13.854979515075684
0.9967041015625,-0.4173583984375,0.36376953125,-17.76123046875,-1.6479490995407104,-12.268065452575684
0.967529296875,-0.419189453125,0.314453125,-25.207517623901367,-5.371093273162842,-6.103515148162842
0.893310546875,-0.3388671875,0.3232421875,-16.17431640625,-2.50244140625,-1.7089842557907104
0.9554443359375,-0.3221435546875,0.2222900390625,-8.60595703125,-1.8920897245407104,5.737304210662842
0.917236328125,-0.2554931640625,0.3187255859375,-6.835937023162842,-2.3193359375,6.896972179412842
0.944580078125,-0.26220703125,0.304443359375,-4.39453125,-2.685546636581421,10.803221702575684
0.92041015625,-0.2703857421875,0.310302734375,-3.173827886581421,-3.906249761581421,7.995604991912842
0.937744140625,-0.2401123046875,0.3040771484375,-7.629394054412842,-1.0986328125,12.695311546325684
0.91259765625,-0.2353515625,0.2977294921875,-8.30078125,0.6713866591453552,13.916014671325684
0.9346923828125,-0.2154541015625,0.32275390625,-8.85009765625,0.1831054538488388,17.39501953125
0.9207763671875,-0.19482421875,0.2884521484375,-7.263183116912842,1.2817381620407104,22.094724655151367
0.9232177734375,-0.1707763671875,0.28759765625,-4.33349609375,2.197265625,25.390623092651367
0.9180908203125,-0.1658935546875,0.3062744140625,-1.15966796875,3.112792730331421,30.517576217651367
0.9197998046875,-0.1424560546875,0.29345703125,7.568358898162842,4.5166015625,38.818359375
0.9833984375,-0.119140625,0.2935791015625,4.8828125,7.080077648162842,44.128414154052734
0.9373779296875,-0.1090087890625,0.297607421875,3.295898199081421,9.765625,43.640132904052734
0.93505859375,-0.0679931640625,0.267822265625,5.737304210662842,10.375975608825684,48.278804779052734
0.9151611328125,-0.0386962890625,0.2562255859375,7.385253429412842,8.30078125,51.452632904052734
0.900146484375,0.0079345703125,0.2528076171875,7.324218273162842,8.23974609375,59.143062591552734
0.930908203125,0.0260009765625,0.224853515625,-2.929687261581421,5.981444835662842,63.720699310302734
0.8853759765625,0.073974609375,0.2672119140625,-14.160155296325684,7.995604991912842,69.76318359375
0.9193115234375,0.1334228515625,0.2222900390625,-18.73779296875,9.58251953125,73.486328125
0.9071044921875,0.1878662109375,0.21533203125,-27.404783248901367,9.1552734375,74.3408203125
0.860595703125,0.224609375,0.2244873046875,-36.7431640625,12.939452171325684,74.03564453125
0.857177734375,0.30126953125,0.204345703125,-33.26416015625,17.2119140625,77.5146484375
0.8238525390625,0.355224609375,0.1875,-33.935546875,18.85986328125,77.392578125
0.8272705078125,0.4149169921875,0.1448974609375,-25.451658248901367,21.545408248901367,80.87157440185547
0.8140869140625,0.4739990234375,0.1295166015625,-20.202634811401367,20.751951217651367,79.52880859375
0.790283203125,0.5238037109375,0.1405029296875,-16.29638671875,21.484373092651367,79.16259765625
0.76318359375,0.5421142578125,0.109619140625,-8.60595703125,21.789548873901367,82.39745330810547
0.7437744140625,0.639892578125,0.0858154296875,-5.249022960662842,21.057126998901367,82.45848846435547
0.7320556640625,0.666015625,0.0572509765625,-6.042479991912842,19.71435546875,81.17675018310547
0.69580078125,0.7314453125,0.056396484375,-11.535643577575684,16.6015625,78.0029296875
0.627197265625,0.7420654296875,0.0389404296875,-17.822265625,16.17431640625,74.21875
0.62939453125,0.8167724609375,0.0157470703125,-17.7001953125,14.892577171325684,69.76318359375
0.5478515625,0.824951171875,0.030517578125,-20.263669967651367,13.000487327575684,66.0400390625
0.490966796875,0.8253173828125,-0.0174560546875,-14.404295921325684,15.136717796325684,63.598628997802734
0.4974365234375,0.83349609375,-0.031982421875,-6.408690929412842,13.305663108825684,62.988277435302734
0.47509765625,0.8681640625,-0.02392578125,-5.981444835662842,12.634276390075684,63.049312591552734
0.4417724609375,0.869384765625,-0.04150390625,-1.0986328125,11.657713890075684,64.27001953125
0.4364013671875,0.9473876953125,-0.0372314453125,-9.765625,10.192870140075684,60.729976654052734
0.365234375,0.9302978515625,-0.023681640625,-14.770506858825684,11.108397483825684,59.387203216552734
0.345947265625,0.9718017578125,-0.061279296875,-16.2353515625,12.695311546325684,55.480953216552734
0.3006591796875,0.9725341796875,-0.0733642578125,-15.686034202575684,13.000487327575684,51.635738372802734
0.2718505859375,0.9862060546875,-0.0914306640625,-13.610838890075684,12.451170921325684,48.889156341552734
0.215576171875,0.955810546875,-0.081298828125,-5.310058116912842,12.634276390075684,47.302242279052734
0.2149658203125,1.009033203125,-0.1097412109375,-5.615233898162842,12.390135765075684,43.823238372802734
0.1719970703125,1.0074462890625,-0.100830078125,-7.507323741912842,10.925292015075684,39.55078125
0.1513671875,1.020751953125,-0.1048583984375,-5.187987804412842,10.314940452575684,34.60693359375
0.1246337890625,1.0030517578125,-0.10888671875,-7.507323741912842,9.521484375,31.066892623901367
0.096923828125,0.9697265625,-0.1171875,-3.601073980331421,9.46044921875,29.785154342651367
0.0836181640625,0.97509765625,-0.126220703125,-3.356933355331421,11.047362327575684,32.89794921875
0.0858154296875,0.9617919921875,-0.130859375,-5.371093273162842,13.854979515075684,36.1328125
0.038330078125,0.989501953125,-0.123779296875,-4.7607421875,14.648436546325684,40.405269622802734
0.01171875,0.9979248046875,-0.14892578125,-6.530761241912842,14.221190452575684,35.5224609375
-0.013427734375,1.0181884765625,-0.1424560546875,-10.375975608825684,11.352538108825684,34.97314453125
-0.0731201171875,0.9981689453125,-0.11865234375,-10.314940452575684,9.6435546875,37.17041015625
-0.0738525390625,0.9669189453125,-0.1553955078125,-4.45556640625,12.329100608825684,28.686521530151367
-0.098876953125,0.9598388671875,-0.1495361328125,1.03759765625,11.535643577575684,30.090330123901367
-0.1173095703125,0.9456787109375,-0.1605224609375,-5.065917491912842,10.559081077575684,30.151365280151367
-0.1292724609375,0.975830078125,-0.171630859375,2.990722417831421,8.60595703125,31.127927780151367
-0.152099609375,0.977294921875,-0.1669921875,-6.103515148162842,6.408690929412842,28.015134811401367
-0.1829833984375,0.96240234375,-0.1568603515625,-10.314940452575684,2.44140625,30.395505905151367
-0.19775390625,1.0516357421875,-0.183837890625,-5.065917491912842,0.6103515625,17.08984375
-0.19091796875,1.0513916015625,-0.1695556640625,-4.69970703125,-2.25830078125,6.469726085662842
-0.1995849609375,1.02294921875,-0.16455078125,2.685546636581421,-6.042479991912842,-1.4648436307907104
-0.1943359375,0.995849609375,-0.142578125,2.44140625,-6.225585460662842,-8.1787109375
-0.1724853515625,0.9710693359375,-0.1563720703125,6.713866710662842,-5.493163585662842,-8.9111328125
-0.1549072265625,0.9573974609375,-0.1610107421875,5.676269054412842,-3.723144292831421,-7.507323741912842
-0.156982421875,0.94482421875,-0.1519775390625,6.652831554412842,-2.38037109375,-3.967284917831421
-0.1536865234375,0.9429931640625,-0.150146484375,5.493163585662842,-1.3427733182907104,1.0986328125
-0.16796875,0.954833984375,-0.13427734375,2.746581792831421,0.1220703050494194,4.150390625
-0.1744384765625,0.9603271484375,-0.158447265625,1.5258787870407104,0.8544921278953552,4.39453125
-0.177490234375,0.9808349609375,-0.1456298828125,-1.15966796875,2.01416015625,2.685546636581421
-0.18408203125,0.9830322265625,-0.1507568359375,0.54931640625,1.15966796875,-0.3662109076976776
-0.176513671875,0.976806640625,-0.1514892578125,3.173827886581421,-0.6713866591453552,-2.563476324081421
-0.1737060546875,0.9691162109375,-0.1444091796875,4.5166015625,-3.051757574081421,-2.990722417831421
-0.1748046875,0.9580078125,-0.141357421875,5.920409679412842,-3.723144292831421,-3.051757574081421
-0.1661376953125,0.96337890625,-0.1400146484375,3.906249761581421,-4.08935546875,-2.44140625
-0.1553955078125,0.9627685546875,-0.13330078125,1.4648436307907104,-3.540038824081421,-1.9531248807907104
-0.15771484375,0.9683837890625,-0.1280517578125,0.7324218153953552,-2.01416015625,-0.1220703050494194
-0.160888671875,0.9718017578125,-0.1343994140625,0.4272460639476776,-1.0986328125,0.1220703050494194
-0.16552734375,0.9759521484375,-0.1290283203125,2.197265625,-0.7324218153953552,0.6713866591453552
-0.1646728515625,0.969482421875,-0.132568359375,0.6713866591453552,-1.0986328125,0.2441406100988388
-0.1787109375,0.9630126953125,-0.1207275390625,0.0,-0.1220703050494194,-0.4272460639476776
-0.16748046875,0.96875,-0.1407470703125,0.4882812201976776,-0.0610351525247097,-1.7700194120407104
-0.173828125,0.9703369140625,-0.134033203125,0.54931640625,-0.6103515625,-1.8920897245407104
-0.1873779296875,2.1107177734375,-0.5357666015625,-36.865234375,-33.0810546875,-148.4375
-0.443603515625,2.146484375,-0.3648681640625,-18.73779296875,-58.776851654052734,-280.70068359375
-0.132080078125,1.8839111328125,-0.3980712890625,54.443355560302734,-88.13475799560547,-355.0414733886719
0.338623046875,1.47802734375,-0.6171875,127.92967987060547,-121.09374237060547,-368.2861022949219
-0.1197509765625,0.535888671875,-0.1083984375,86.05956268310547,-129.94384765625,-377.0751647949219
-0.1800537109375,-0.0357666015625,0.1346435546875,144.47021484375,-93.93309783935547,-357.1166687011719
-0.2486572265625,-0.3399658203125,0.10546875,74.52392578125,-67.56591796875,-324.4628601074219
-0.0889892578125,-0.354736328125,0.2249755859375,15.808104515075684,-44.921871185302734,-247.07029724121094
0.3798828125,-0.330322265625,0.217041015625,-18.61572265625,-28.076169967651367,-185.18064880371094
0.63427734375,-0.3231201171875,0.3140869140625,-14.282225608825684,-13.488768577575684,-118.34716033935547
0.8353271484375,-0.4014892578125,0.380859375,13.427733421325684,-10.437010765075684,-56.518550872802734
0.93896484375,-0.3885498046875,0.4747314453125,25.756834030151367,-5.798339366912842,-18.798828125
1.0242919921875,-0.42529296875,0.38134765625,29.602048873901367,-0.1220703050494194,-11.169432640075684
0.968017578125,-0.313720703125,0.4324951171875,0.4882812201976776,0.3662109076976776,-12.573241233825684
0.8968505859375,-0.30419921875,0.3416748046875,-7.690429210662842,3.417968511581421,-8.30078125
0.9482421875,-0.275390625,0.32666015625,-3.967284917831421,-2.868652105331421,-5.371093273162842
0.9007568359375,-0.24267578125,0.309326171875,2.25830078125,0.7324218153953552,-0.30517578125
0.95068359375,-0.26220703125,0.31884765625,-6.286620616912842,-1.8310545682907104,-0.2441406100988388
0.9136962890625,-0.254638671875,0.36474609375,-6.713866710662842,-0.0610351525247097,4.08935546875
0.959228515625,-0.2611083984375,0.312255859375,-3.784179449081421,-0.9155272841453552,6.896972179412842
0.887939453125,-0.2364501953125,0.370361328125,-9.033203125,-1.7089842557907104,10.742186546325684
0.88623046875,-0.25244140625,0.3099365234375,-0.1220703050494194,4.45556640625,21.301267623901367
0.9254150390625,-0.2447509765625,0.341064453125,1.5258787870407104,3.784179449081421,27.770994186401367
0.899658203125,-0.240234375,0.347900390625,14.282225608825684,8.4228515625,39.48974609375
0.8931884765625,-0.217041015625,0.3388671875,15.991209983825684,9.46044921875,52.185054779052734
0.8695068359375,-0.16259765625,0.3319091796875,15.136717796325684,11.596678733825684,66.34521484375
0.8870849609375,-0.1602783203125,0.3040771484375,5.065917491912842,14.831542015075684,77.94189453125
0.86181640625,-0.0938720703125,0.307373046875,-0.30517578125,18.9208984375,88.80614471435547
0.8323974609375,-0.06298828125,0.2900390625,-4.57763671875,24.963376998901367,103.39354705810547
0.834716796875,0.026123046875,0.2279052734375,-13.122557640075684,28.259275436401367,115.23436737060547
0.7930908203125,0.1439208984375,0.21484375,-23.193357467651367,35.46142578125,123.59618377685547
0.8616943359375,0.1904296875,0.1905517578125,-42.236324310302734,32.89794921875,130.18798828125
0.7606201171875,0.3572998046875,0.1807861328125,-47.119136810302734,40.588375091552734,136.04736328125
0.85595703125,0.466796875,0.0115966796875,-37.90283203125,36.92626953125,139.83154296875
0.724853515625,0.6231689453125,0.0589599609375,-40.771480560302734,31.188962936401367,135.3759765625
0.6300048828125,0.64111328125,-0.00341796875,-31.921384811401367,30.029294967651367,132.38525390625
0.52880859375,0.7310791015625,-0.0140380859375,-23.925779342651367,28.625486373901367,131.103515625
0.510986328125,0.7911376953125,-0.087646484375,-22.155759811401367,26.550291061401367,128.84521484375
0.4417724609375,0.9130859375,-0.0982666015625,-18.24951171875,25.268552780151367,124.51171112060547
0.4278564453125,0.9935302734375,-0.100341796875,-24.169919967651367,21.057126998901367,115.41747283935547
0.29443359375,0.963134765625,-0.062744140625,-19.04296875,20.080564498901367,104.91942596435547
0.302490234375,1.1102294921875,-0.116455078125,-12.573241233825684,18.98193359375,90.75926971435547
0.222412109375,1.0048828125,-0.113037109375,-15.380858421325684,13.366698265075684,77.81982421875
0.173583984375,1.0093994140625,-0.0970458984375,-11.718749046325684,15.686034202575684,71.8994140625
0.19873046875,1.06103515625,-0.14794921875,-12.634276390075684,14.892577171325684,66.22314453125
0.118896484375,1.01123046875,-0.1317138671875,-20.141599655151367,16.9677734375,62.011714935302734
0.07861328125,0.9984130859375,-0.10693359375,-13.610838890075684,19.71435546875,60.363765716552734
0.0576171875,0.977294921875,-0.158203125,-9.21630859375,21.240232467651367,64.14794921875
-0.0142822265625,0.9852294921875,-0.1932373046875,-2.0751953125,19.53125,62.072750091552734
-0.0843505859375,0.9576416015625,-0.1636962890625,-4.94384765625,18.6767578125,66.2841796875
-0.1300048828125,1.0091552734375,-0.1597900390625,-9.27734375,18.37158203125,66.650390625
-0.1605224609375,1.0003662109375,-0.18359375,-9.09423828125,19.71435546875,58.837886810302734
-0.19775390625,1.03955078125,-0.212158203125,-7.263183116912842,18.4326171875,51.757808685302734
-0.2110595703125,1.0726318359375,-0.235107421875,-6.286620616912842,16.17431640625,39.85595703125
-0.2554931640625,1.086181640625,-0.2344970703125,-4.5166015625,9.46044921875,30.273435592651367
-0.243896484375,1.0635986328125,-0.2255859375,3.479003667831421,1.9531248807907104,11.169432640075684
-0.2454833984375,1.000244140625,-0.195068359375,-0.30517578125,-4.57763671875,0.8544921278953552
-0.2437744140625,0.95947265625,-0.163818359375,1.0986328125,-7.141112804412842,-1.7089842557907104
-0.2379150390625,0.942138671875,-0.1474609375,-3.601073980331421,-9.21630859375,-4.08935546875
-0.2227783203125,0.9444580078125,-0.1920166015625,-1.4038084745407104,-10.986327171325684,-2.0751953125
-0.2301025390625,0.93798828125,-0.1629638671875,-5.615233898162842,-10.498045921325684,-2.38037109375
-0.2275390625,0.93408203125,-0.1859130859375,-3.356933355331421,-9.09423828125,-1.5869139432907104
-0.219970703125,0.951171875,-0.183349609375,-0.3662109076976776,-5.432128429412842,0.1831054538488388
-0.22265625,0.954833984375,-0.1787109375,-2.624511480331421,-2.868652105331421,-2.50244140625
-0.222412109375,0.95556640625,-0.19384765625,2.38037109375,-0.7324218153953552,-3.540038824081421
-0.212158203125,0.9600830078125,-0.1973876953125,3.051757574081421,0.2441406100988388,-3.417968511581421
-0.21484375,0.9442138671875,-0.1986083984375,5.493163585662842,-1.4038084745407104,-4.33349609375
-0.2080078125,0.9534912109375,-0.1846923828125,6.652831554412842,-1.6479490995407104,-3.540038824081421
-0.206787109375,0.9521484375,-0.182373046875,5.126952648162842,-3.601073980331421,-3.540038824081421
-0.1983642578125,0.949951171875,-0.180419921875,2.13623046875,-6.347655773162842,-3.173827886581421
-0.194580078125,0.9503173828125,-0.1741943359375,-1.0986328125,-6.286620616912842,-4.57763671875
-0.1962890625,0.9559326171875,-0.174560546875,0.2441406100988388,-5.187987804412842,-2.990722417831421
-0.1856689453125,0.9617919921875,-0.1787109375,-2.624511480331421,-4.8828125,-1.7700194120407104
-0.2020263671875,0.954833984375,-0.166748046875,-3.356933355331421,-3.906249761581421,0.30517578125
-0.2117919921875,0.96142578125,-0.190673828125,0.4272460639476776,-2.929687261581421,2.746581792831421
-0.2196044921875,0.9580078125,-0.200927734375,-2.44140625,-2.197265625,3.173827886581421
-0.223388671875,0.94677734375,-0.216552734375,0.4882812201976776,-2.3193359375,0.30517578125
-0.2080078125,0.9349365234375,-0.2027587890625,-0.2441406100988388,-2.13623046875,-2.3193359375
-0.20458984375,0.9371337890625,-0.196044921875,-0.0610351525247097,-1.4038084745407104,-2.0751953125
-0.199951171875,0.9544677734375,-0.2032470703125,1.7089842557907104,-0.4882812201976776,-0.30517578125
-0.2032470703125,0.9639892578125,-0.198486328125,-0.2441406100988388,-2.25830078125,-0.8544921278953552
-0.1998291015625,0.955078125,-0.1917724609375,-0.6713866591453552,-3.845214605331421,-1.8920897245407104
-0.1947021484375,0.95654296875,-0.1815185546875,0.30517578125,-2.868652105331421,-3.173827886581421
-0.186279296875,0.9609375,-0.1968994140625,2.807616949081421,-2.13623046875,-2.868652105331421
-0.18505859375,0.961181640625,-0.184326171875,0.8544921278953552,-0.7934569716453552,-2.990722417831421
-0.1982421875,0.9578857421875,-0.1827392578125,2.0751953125,-0.6103515625,-1.4038084745407104
-0.1993408203125,0.95703125,-0.1953125,1.8920897245407104,-0.8544921278953552,0.9155272841453552
-0.1947021484375,0.9478759765625,-0.2105712890625,2.44140625,-2.25830078125,-1.15966796875
-0.1759033203125,0.9376220703125,-0.1759033203125,1.0986328125,-3.967284917831421,-4.69970703125
-0.1773681640625,0.9371337890625,-0.15673828125,1.6479490995407104,-2.563476324081421,-2.990722417831421
-0.1876220703125,0.9619140625,-0.1832275390625,1.15966796875,-2.38037109375,-0.3662109076976776
-0.193359375,0.980712890625,-0.204345703125,-0.8544921278953552,-4.5166015625,0.7934569716453552
-0.193359375,0.9605712890625,-0.195068359375,1.0986328125,-6.286620616912842,-1.4038084745407104
-0.1827392578125,0.947509765625,-0.175537109375,4.0283203125,-5.859374523162842,-4.08935546875
-0.1834716796875,0.9486083984375,-0.17041015625,4.150390625,-4.94384765625,-4.5166015625
-0.1744384765625,0.9669189453125,-0.1790771484375,2.868652105331421,-4.150390625,-1.9531248807907104
-0.1904296875,0.9661865234375,-0.18408203125,0.0,-3.906249761581421,0.30517578125
-0.1873779296875,0.9578857421875,-0.1966552734375,0.54931640625,-3.906249761581421,1.15966796875
-0.1728515625,0.948974609375,-0.1837158203125,0.8544921278953552,-3.784179449081421,-0.7934569716453552
-0.1826171875,0.9423828125,-0.16796875,0.9765624403953552,-1.4648436307907104,-2.38037109375
-0.1412353515625,1.9046630859375,-0.4639892578125,-53.771968841552734,-47.546382904052734,-159.72900390625
-0.22509765625,1.748291015625,-0.3919677734375,-39.55078125,-55.969234466552734,-234.92430114746094
0.0064697265625,1.6629638671875,-0.61328125,20.141599655151367,-78.125,-285.0341796875
0.215087890625,1.464599609375,-0.7244873046875,93.01757049560547,-117.67577362060547,-314.88037109375
-0.0247802734375,0.7501220703125,-0.1488037109375,69.27490234375,-130.18798828125,-328.8573913574219
-0.0721435546875,0.120849609375,-0.06005859375,101.01317596435547,-110.10741424560547,-306.5185546875
0.13037109375,0.066162109375,-0.0029296875,83.00780487060547,-94.29930877685547,-281.55517578125
0.1002197265625,-0.0970458984375,0.1185302734375,57.739253997802734,-72.93701171875,-243.53025817871094
0.31689453125,-0.211669921875,0.19482421875,34.48486328125,-58.349605560302734,-198.24217224121094
0.5875244140625,-0.1595458984375,0.2041015625,6.286620616912842,-34.3017578125,-151.611328125
0.7330322265625,-0.2686767578125,0.2757568359375,-13.305663108825684,-22.460935592651367,-107.60497283935547
0.8560791015625,-0.364013671875,0.3599853515625,-0.4272460639476776,-16.29638671875,-64.208984375
0.9786376953125,-0.339111328125,0.398681640625,6.042479991912842,-11.779784202575684,-27.832029342651367
0.9952392578125,-0.400390625,0.3365478515625,6.652831554412842,-8.056640625,-18.61572265625
0.95947265625,-0.3768310546875,0.420166015625,-6.530761241912842,-4.33349609375,-8.85009765625
0.9521484375,-0.2916259765625,0.352783203125,-10.070799827575684,-3.051757574081421,-3.417968511581421
0.919921875,-0.3267822265625,0.347900390625,-5.310058116912842,-2.929687261581421,4.82177734375
0.91796875,-0.229736328125,0.3182373046875,-5.126952648162842,-2.746581792831421,6.774901866912842
0.9400634765625,-0.2197265625,0.3260498046875,-2.50244140625,-1.5258787870407104,8.9111328125
0.907470703125,-0.17626953125,0.338623046875,-7.202147960662842,-2.01416015625,7.385253429412842
0.95166015625,-0.193603515625,0.321044921875,-3.601073980331421,-1.4648436307907104,10.620116233825684
0.9195556640625,-0.158203125,0.349609375,-6.408690929412842,-1.0986328125,11.291502952575684
0.8905029296875,-0.1947021484375,0.3394775390625,5.0048828125,1.9531248807907104,21.240232467651367
0.9093017578125,-0.192626953125,0.3056640625,11.535643577575684,3.723144292831421,30.761716842651367
0.880126953125,-0.1925048828125,0.3570556640625,13.732909202575684,7.141112804412842,44.189449310302734
0.8714599609375,-0.162353515625,0.3125,17.63916015625,10.070799827575684,61.340328216552734
0.8753662109375,-0.123779296875,0.3399658203125,8.60595703125,11.596678733825684,75.0732421875
0.8494873046875,-0.0809326171875,0.330810546875,3.356933355331421,17.02880859375,86.36473846435547
0.8516845703125,-0.0592041015625,0.2904052734375,-6.774901866912842,23.010251998901367,98.20555877685547
0.82177734375,-0.0076904296875,0.2786865234375,-15.075682640075684,29.602048873901367,110.16844940185547
0.8074951171875,0.09130859375,0.19287109375,-16.2353515625,33.99658203125,121.64305877685547
0.8441162109375,0.25390625,0.1865234375,-33.26416015625,34.66796875,123.84032440185547
0.8787841796875,0.38134765625,0.134033203125,-46.997066497802734,38.26904296875,121.45995330810547
0.8348388671875,0.4317626953125,0.0836181640625,-55.786128997802734,33.5693359375,117.18749237060547
0.7901611328125,0.6396484375,0.036865234375,-37.841796875,33.87451171875,108.09325408935547
0.718994140625,0.6224365234375,-0.00830078125,-32.89794921875,30.029294967651367,100.95214080810547
0.6734619140625,0.7352294921875,-0.0037841796875,-23.254392623901367,27.954099655151367,92.16307830810547
0.61328125,0.722900390625,-0.0181884765625,-13.000487327575684,25.573728561401367,90.02684783935547
0.62841796875,0.807861328125,-0.02490234375,-16.6015625,23.925779342651367,84.04540252685547
0.560791015625,0.7906494140625,-0.0421142578125,-15.319823265075684,26.367185592651367,80.078125
0.5428466796875,0.8486328125,-0.0595703125,-11.413573265075684,26.611326217651367,76.5380859375
0.494140625,0.8692626953125,-0.068115234375,-10.314940452575684,26.184080123901367,75.01220703125
0.471435546875,0.9307861328125,-0.1142578125,-10.437010765075684,26.062009811401367,72.509765625
0.426025390625,0.9305419921875,-0.106201171875,-18.6767578125,24.291990280151367,66.95556640625
0.3819580078125,0.9737548828125,-0.1112060546875,-21.911619186401367,24.780271530151367,61.462398529052734
0.36181640625,0.955322265625,-0.146240234375,-16.2353515625,23.803709030151367,59.875484466552734
0.2694091796875,0.9117431640625,-0.1458740234375,-11.047362327575684,24.230955123901367,54.565425872802734
0.2515869140625,0.9288330078125,-0.1683349609375,-6.103515148162842,24.169919967651367,55.175777435302734
0.2467041015625,1.0294189453125,-0.2099609375,0.30517578125,21.545408248901367,53.649898529052734
0.2099609375,1.0135498046875,-0.2230224609375,-12.634276390075684,17.63916015625,47.363277435302734
0.125244140625,0.96875,-0.1702880859375,-12.084959983825684,17.76123046875,43.334957122802734
0.1221923828125,0.989501953125,-0.223388671875,0.9155272841453552,18.73779296875,43.029781341552734
0.13671875,1.0528564453125,-0.2607421875,-3.845214605331421,14.953612327575684,34.1796875
0.0916748046875,0.9970703125,-0.2276611328125,-1.5869139432907104,11.901854515075684,31.677244186401367
0.080810546875,0.9476318359375,-0.2037353515625,0.7324218153953552,12.023924827575684,31.188962936401367
0.0555419921875,0.9613037109375,-0.219970703125,4.150390625,12.390135765075684,33.447265625
0.0296630859375,0.9808349609375,-0.224853515625,2.38037109375,10.681151390075684,34.48486328125
0.0048828125,0.98046875,-0.2274169921875,-0.0610351525247097,9.33837890625,36.2548828125
-0.0308837890625,0.981689453125,-0.207275390625,-2.0751953125,9.27734375,33.8134765625
-0.07080078125,0.9713134765625,-0.1990966796875,-4.0283203125,10.375975608825684,32.40966796875
-0.0679931640625,0.9876708984375,-0.213623046875,-1.6479490995407104,10.681151390075684,30.883787155151367
-0.1114501953125,0.9332275390625,-0.2066650390625,-4.39453125,9.521484375,35.15625
-0.1302490234375,1.0159912109375,-0.2337646484375,3.662109136581421,7.080077648162842,19.71435546875
-0.1328125,1.02490234375,-0.2196044921875,7.141112804412842,4.8828125,14.404295921325684
-0.1463623046875,1.003662109375,-0.211181640625,4.82177734375,3.112792730331421,8.9111328125
-0.1519775390625,1.001220703125,-0.2003173828125,5.554198741912842,1.8310545682907104,4.638671875
-0.1485595703125,0.973388671875,-0.2021484375,1.220703125,-0.7324218153953552,2.746581792831421
-0.1710205078125,0.958251953125,-0.18017578125,-2.868652105331421,-2.990722417831421,0.3662109076976776
-0.1500244140625,0.9534912109375,-0.2020263671875,-1.6479490995407104,-4.150390625,1.2817381620407104
-0.14892578125,0.953369140625,-0.1890869140625,-2.624511480331421,-3.417968511581421,1.7089842557907104
-0.143798828125,0.9447021484375,-0.2113037109375,0.7934569716453552,-1.8920897245407104,2.44140625
-0.1505126953125,0.962646484375,-0.2008056640625,0.9765624403953552,-0.0610351525247097,3.845214605331421
-0.15625,0.9610595703125,-0.192626953125,2.13623046875,0.4272460639476776,2.563476324081421
-0.1617431640625,0.9609375,-0.2003173828125,1.7700194120407104,0.4882812201976776,1.8920897245407104
-0.126708984375,0.9857177734375,-0.1895751953125,2.3193359375,-0.7934569716453552,0.4882812201976776
-0.167724609375,0.96142578125,-0.199951171875,3.295898199081421,-0.0610351525247097,-0.7324218153953552
-0.1552734375,0.963134765625,-0.2039794921875,1.7700194120407104,-0.8544921278953552,-1.0986328125
-0.1500244140625,0.9637451171875,-0.1837158203125,2.13623046875,1.2817381620407104,-3.051757574081421
-0.1495361328125,0.9581298828125,-0.18896484375,-0.7324218153953552,3.112792730331421,-1.8310545682907104
-0.148681640625,0.942626953125,-0.1939697265625,-1.4038084745407104,3.356933355331421,0.6713866591453552
-0.18212890625,0.955078125,-0.170654296875,-7.019042491912842,2.50244140625,2.563476324081421
-0.1611328125,0.9566650390625,-0.20458984375,-1.8310545682907104,0.6713866591453552,1.2817381620407104
-0.1607666015625,0.98046875,-0.1956787109375,0.6103515625,-1.2817381620407104,-0.0610351525247097
-0.164794921875,0.97412109375,-0.20068359375,0.6713866591453552,-2.746581792831421,-2.563476324081421
-0.1558837890625,0.9678955078125,-0.1943359375,0.2441406100988388,-3.662109136581421,-3.967284917831421
-0.146484375,0.9659423828125,-0.1910400390625,1.7700194120407104,-2.685546636581421,-3.295898199081421
-0.1480712890625,0.9625244140625,-0.196533203125,1.15966796875,-2.563476324081421,-2.3193359375
-0.1463623046875,0.958740234375,-0.18798828125,-0.4272460639476776,-2.13623046875,-1.6479490995407104
-0.1478271484375,0.951171875,-0.19580078125,0.2441406100988388,-0.3662109076976776,-0.1220703050494194
-0.143310546875,0.9658203125,-0.1956787109375,-0.4882812201976776,-0.1220703050494194,0.2441406100988388
-0.15771484375,0.956298828125,-0.1881103515625,-0.30517578125,-0.3662109076976776,-0.3662109076976776
-0.1475830078125,0.96728515625,-0.1910400390625,0.8544921278953552,-0.54931640625,-0.0610351525247097
-0.151611328125,0.9658203125,-0.1959228515625,-1.0986328125,-0.9155272841453552,-0.1220703050494194
-0.1590576171875,0.958740234375,-0.1995849609375,0.7324218153953552,-0.7934569716453552,-0.6713866591453552
-0.1485595703125,0.960205078125,-0.2091064453125,0.54931640625,-1.9531248807907104,-1.5869139432907104
-0.1522216796875,0.9581298828125,-0.1912841796875,1.9531248807907104,-2.01416015625,-1.8310545682907104
-0.1505126953125,0.9591064453125,-0.196533203125,1.8310545682907104,-1.4038084745407104,-1.0986328125
-0.14599609375,0.959716796875,-0.200439453125,1.5869139432907104,-1.8310545682907104,-0.4882812201976776
-0.142822265625,0.96484375,-0.195068359375,0.4882812201976776,-1.6479490995407104,-0.0610351525247097
-0.149658203125,0.9541015625,-0.185546875,-0.4882812201976776,-0.30517578125,0.3662109076976776
-0.170654296875,1.9666748046875,-0.5283203125,-43.212886810302734,-60.058589935302734,-163.87937927246094
-0.2427978515625,1.888671875,-0.517822265625,-38.14697265625,-90.75926971435547,-268.5546875
0.0347900390625,1.6251220703125,-0.6019287109375,22.460935592651367,-120.11717987060547,-314.453125
0.3262939453125,1.228759765625,-0.5040283203125,102.23387908935547,-152.099609375,-332.2143249511719
0.0958251953125,0.36328125,-0.1939697265625,120.23925018310547,-138.97705078125,-326.4159851074219
0.06591796875,0.125,-0.1201171875,157.470703125,-114.99022674560547,-309.6923828125
-0.069091796875,-0.12109375,0.1845703125,118.46923065185547,-82.33641815185547,-290.8935546875
0.079345703125,-0.3109130859375,0.17724609375,11.108397483825684,-53.527828216552734,-241.39402770996094
0.3994140625,-0.2178955078125,0.1923828125,-30.517576217651367,-33.63037109375,-185.97410583496094
0.566162109375,-0.4366455078125,0.3360595703125,-49.987789154052734,-25.329587936401367,-120.78856658935547
0.8143310546875,-0.4453125,0.3685302734375,2.929687261581421,-21.240232467651367,-65.61279296875
0.95751953125,-0.4290771484375,0.39697265625,26.123044967651367,-13.549803733825684,-21.545408248901367
1.0045166015625,-0.52392578125,0.4542236328125,30.212400436401367,-5.920409679412842,-13.549803733825684
0.9891357421875,-0.4178466796875,0.4559326171875,11.962889671325684,1.7700194120407104,-6.347655773162842
0.9210205078125,-0.385498046875,0.4111328125,-5.187987804412842,-0.7934569716453552,-8.72802734375
0.9207763671875,-0.3446044921875,0.312744140625,-7.873534679412842,-2.197265625,8.36181640625
0.9141845703125,-0.2945556640625,0.3604736328125,-5.554198741912842,-1.2817381620407104,15.747069358825684
0.9337158203125,-0.2994384765625,0.314208984375,-1.15966796875,-1.03759765625,24.291990280151367
0.9158935546875,-0.2999267578125,0.3619384765625,-2.685546636581421,-0.7934569716453552,28.137205123901367
0.8848876953125,-0.239501953125,0.327880859375,-4.5166015625,2.807616949081421,37.41455078125
0.902099609375,-0.218994140625,0.3189697265625,-2.25830078125,1.7700194120407104,44.128414154052734
0.8720703125,-0.1798095703125,0.37109375,2.807616949081421,4.7607421875,53.833003997802734
0.8922119140625,-0.172119140625,0.2825927734375,11.413573265075684,9.94873046875,67.44384765625
0.8846435546875,-0.1209716796875,0.3203125,-2.01416015625,7.568358898162842,74.5849609375
0.8243408203125,-0.042724609375,0.363525390625,-1.9531248807907104,16.66259765625,87.70751190185547
0.87939453125,-0.0260009765625,0.2886962890625,-12.573241233825684,17.15087890625,98.02245330810547
0.83154296875,0.08203125,0.273193359375,-27.770994186401367,21.850584030151367,100.83007049560547
0.911865234375,0.1932373046875,0.2412109375,-33.69140625,29.296873092651367,100.40282440185547
0.8756103515625,0.2550048828125,0.241943359375,-54.382320404052734,29.602048873901367,93.07860565185547
0.813720703125,0.356201171875,0.2021484375,-41.748043060302734,35.82763671875,92.71239471435547
0.8826904296875,0.4400634765625,0.1402587890625,-28.198240280151367,33.69140625,92.77342987060547
0.8262939453125,0.547119140625,0.1131591796875,-26.855466842651367,30.212400436401367,87.76854705810547
0.7593994140625,0.5025634765625,0.0513916015625,-15.502928733825684,30.090330123901367,85.81542205810547
0.7435302734375,0.6209716796875,0.0703125,-9.8876953125,29.174802780151367,82.27538299560547
0.6883544921875,0.6326904296875,0.04541015625,-9.3994140625,27.893064498901367,78.857421875
0.7054443359375,0.672119140625,0.0128173828125,-2.929687261581421,25.878904342651367,77.392578125
0.6488037109375,0.7215576171875,0.0321044921875,-9.46044921875,22.705076217651367,74.0966796875
0.6605224609375,0.7926025390625,-0.005859375,-8.60595703125,22.949216842651367,70.6787109375
0.604248046875,0.793701171875,-0.010498046875,-14.465331077575684,22.277830123901367,65.185546875
0.5704345703125,0.8287353515625,-0.0103759765625,-14.099120140075684,22.216794967651367,62.133785247802734
0.524658203125,0.844482421875,0.0040283203125,-22.583005905151367,24.169919967651367,56.152339935302734
0.539794921875,0.8514404296875,-0.07373046875,-11.474608421325684,26.000974655151367,54.565425872802734
0.5035400390625,0.8775634765625,-0.062744140625,-8.72802734375,23.742673873901367,51.025386810302734
0.46435546875,0.889404296875,-0.07666015625,-7.080077648162842,21.850584030151367,51.635738372802734
0.4429931640625,0.890625,-0.09912109375,-6.896972179412842,19.8974609375,49.682613372802734
0.4075927734375,0.9210205078125,-0.095458984375,-8.48388671875,20.690916061401367,48.400875091552734
0.382080078125,0.941162109375,-0.1341552734375,-10.681151390075684,17.7001953125,46.020503997802734
0.328125,0.92333984375,-0.10498046875,-11.047362327575684,16.05224609375,44.128414154052734
0.3228759765625,0.958984375,-0.1405029296875,-5.432128429412842,15.197752952575684,46.386714935302734
0.31591796875,0.9814453125,-0.165283203125,-7.080077648162842,12.512206077575684,39.9169921875
0.2685546875,0.9857177734375,-0.1519775390625,-9.09423828125,11.413573265075684,34.85107421875
0.2388916015625,0.9720458984375,-0.1568603515625,-5.981444835662842,10.864256858825684,32.1044921875
0.2176513671875,0.9793701171875,-0.1646728515625,-2.929687261581421,10.009765625,28.869626998901367
0.197265625,0.983154296875,-0.1947021484375,-0.6103515625,9.09423828125,26.977537155151367
0.1728515625,0.962646484375,-0.185791015625,-1.9531248807907104,6.347655773162842,26.184080123901367
0.154296875,0.9534912109375,-0.163818359375,-3.540038824081421,5.920409679412842,25.207517623901367
0.1610107421875,0.964111328125,-0.17822265625,-1.03759765625,6.164550304412842,24.841306686401367
0.146728515625,0.96923828125,-0.1689453125,-4.08935546875,4.69970703125,28.991697311401367
0.1126708984375,0.9654541015625,-0.1629638671875,-7.019042491912842,5.859374523162842,27.099607467651367
0.091796875,0.9874267578125,-0.187255859375,-1.6479490995407104,6.225585460662842,28.930662155151367
0.082275390625,1.02880859375,-0.2059326171875,-1.3427733182907104,4.7607421875,28.503416061401367
0.04736328125,1.0020751953125,-0.1907958984375,-4.45556640625,5.126952648162842,21.911619186401367
0.033935546875,0.99462890625,-0.1961669921875,1.3427733182907104,6.042479991912842,18.5546875
0.021728515625,0.9732666015625,-0.183837890625,-0.4272460639476776,6.408690929412842,18.5546875
0.011474609375,0.9512939453125,-0.18408203125,2.685546636581421,7.385253429412842,19.47021484375
0.005126953125,0.9490966796875,-0.1771240234375,-3.540038824081421,7.385253429412842,21.728513717651367
-0.0203857421875,0.9737548828125,-0.191650390625,-2.746581792831421,7.690429210662842,23.315427780151367
-0.02978515625,0.999267578125,-0.207275390625,-4.8828125,6.896972179412842,21.789548873901367
-0.0550537109375,0.998779296875,-0.223876953125,-4.21142578125,5.126952648162842,18.12744140625
-0.0712890625,0.9910888671875,-0.2137451171875,1.8310545682907104,3.784179449081421,13.732909202575684
-0.074462890625,0.9866943359375,-0.208984375,6.652831554412842,1.7700194120407104,10.925292015075684
-0.067626953125,0.98291015625,-0.209228515625,7.324218273162842,-0.30517578125,8.97216796875
-0.107666015625,0.9771728515625,-0.201904296875,6.774901866912842,-2.50244140625,5.554198741912842
-0.0810546875,0.981689453125,-0.1949462890625,1.5869139432907104,-2.807616949081421,5.432128429412842
-0.0877685546875,0.949462890625,-0.1768798828125,-5.615233898162842,-2.3193359375,8.85009765625
-0.09765625,0.9847412109375,-0.1954345703125,-2.01416015625,-1.8310545682907104,2.44140625
-0.097412109375,0.9765625,-0.192626953125,-4.5166015625,-0.8544921278953552,3.784179449081421
-0.09423828125,0.974365234375,-0.19482421875,-2.13623046875,-1.7089842557907104,3.051757574081421
-0.10009765625,0.962646484375,-0.18994140625,0.6713866591453552,-0.9765624403953552,2.197265625
-0.0911865234375,0.9759521484375,-0.1856689453125,4.5166015625,-1.5869139432907104,-0.9155272841453552
-0.1002197265625,0.970703125,-0.19091796875,5.0048828125,-0.3662109076976776,-0.30517578125
-0.0908203125,0.974853515625,-0.1922607421875,4.45556640625,-0.9765624403953552,-0.1831054538488388
-0.090576171875,0.9676513671875,-0.1800537109375,2.746581792831421,-0.9765624403953552,0.3662109076976776
-0.097412109375,0.9671630859375,-0.177734375,1.15966796875,-0.4272460639476776,1.220703125
-0.09765625,0.9755859375,-0.1864013671875,0.0,-0.30517578125,2.01416015625
-0.101318359375,0.9708251953125,-0.18603515625,-0.9155272841453552,-0.6103515625,0.9155272841453552
-0.108154296875,0.9664306640625,-0.1824951171875,0.8544921278953552,-0.8544921278953552,-0.3662109076976776
-0.0992431640625,0.97705078125,-0.1844482421875,2.38037109375,-1.3427733182907104,-0.9765624403953552
-0.0999755859375,0.9775390625,-0.1822509765625,2.25830078125,-1.9531248807907104,-1.03759765625
-0.0989990234375,0.9761962890625,-0.1798095703125,2.0751953125,-1.6479490995407104,-1.5869139432907104
-0.0985107421875,0.9747314453125,-0.1741943359375,0.4882812201976776,-0.7934569716453552,-1.03759765625
-0.0926513671875,0.9683837890625,-0.180419921875,-0.0610351525247097,-0.1220703050494194,-1.0986328125
-0.0953369140625,0.968017578125,-0.17822265625,0.9765624403953552,0.7324218153953552,-0.4272460639476776
-0.0926513671875,0.9744873046875,-0.1783447265625,1.9531248807907104,0.4882812201976776,0.4272460639476776
-0.10009765625,0.9656982421875,-0.1768798828125,1.5258787870407104,0.3662109076976776,1.4038084745407104
-0.10888671875,0.9654541015625,-0.175048828125,1.4038084745407104,0.6713866591453552,1.8920897245407104
-0.1165771484375,0.9710693359375,-0.1806640625,1.220703125,0.0610351525247097,0.1831054538488388
-0.1033935546875,0.97119140625,-0.175537109375,0.7324218153953552,-0.3662109076976776,-1.03759765625
-0.09765625,0.966552734375,-0.165771484375,1.2817381620407104,0.2441406100988388,-1.7089842557907104
0.0457763671875,2.2481689453125,-0.359619140625,-37.841796875,-47.973628997802734,-171.02049255371094
-0.1558837890625,1.9967041015625,-0.1448974609375,-27.160642623901367,-72.1435546875,-254.27244567871094
0.213623046875,1.65087890625,-0.25634765625,47.424312591552734,-89.11132049560547,-310.791015625
0.4415283203125,1.275146484375,-0.4117431640625,108.70360565185547,-111.02294158935547,-324.4628601074219
0.0274658203125,0.4793701171875,-0.0465087890625,93.93309783935547,-104.37010955810547,-332.5805358886719
0.0367431640625,0.001220703125,0.2056884765625,106.32323455810547,-76.0498046875,-312.92724609375
-0.0230712890625,-0.233154296875,0.21240234375,80.99364471435547,-53.588863372802734,-293.88427734375
0.061767578125,-0.375732421875,0.1055908203125,41.259761810302734,-30.151365280151367,-236.99949645996094
0.3126220703125,-0.224365234375,0.2867431640625,-36.68212890625,-15.624999046325684,-172.18016052246094
0.6761474609375,-0.335693359375,0.2347412109375,1.8920897245407104,-5.737304210662842,-98.08348846435547
0.776611328125,-0.4154052734375,0.4168701171875,12.695311546325684,-11.047362327575684,-52.368160247802734
0.9635009765625,-0.3929443359375,0.38037109375,26.977537155151367,-3.723144292831421,-17.4560546875
0.9705810546875,-0.4466552734375,0.4056396484375,14.404295921325684,-2.50244140625,-8.6669921875
0.9534912109375,-0.3255615234375,0.4620361328125,-4.69970703125,-0.7934569716453552,-4.08935546875
0.9259033203125,-0.3489990234375,0.380859375,-4.08935546875,-0.1220703050494194,0.7934569716453552
0.9208984375,-0.269287109375,0.302978515625,0.0,0.1831054538488388,9.70458984375
0.888671875,-0.221923828125,0.3275146484375,-3.479003667831421,-1.9531248807907104,10.009765625
0.9361572265625,-0.2088623046875,0.328125,-1.0986328125,-1.8310545682907104,13.854979515075684
0.9290771484375,-0.1885986328125,0.3358154296875,-5.249022960662842,-4.82177734375,12.573241233825684
0.92919921875,-0.194091796875,0.3499755859375,-5.065917491912842,-4.8828125,13.061522483825684
0.93603515625,-0.1612548828125,0.34423828125,-4.94384765625,-3.845214605331421,9.765625
0.910888671875,-0.1605224609375,0.36279296875,-4.33349609375,-2.746581792831421,7.446288585662842
0.9178466796875,-0.125732421875,0.3297119140625,2.01416015625,-1.2817381620407104,7.568358898162842
0.914794921875,-0.158203125,0.3743896484375,0.0610351525247097,-2.0751953125,7.507323741912842
0.8858642578125,-0.149169921875,0.3834228515625,2.197265625,0.1831054538488388,9.82666015625
0.897705078125,-0.1666259765625,0.37255859375,5.065917491912842,-0.7934569716453552,14.770506858825684
0.879150390625,-0.172119140625,0.397705078125,6.958007335662842,-0.54931640625,19.6533203125
0.906005859375,-0.152099609375,0.407470703125,7.690429210662842,2.38037109375,26.489255905151367
0.9013671875,-0.15673828125,0.4012451171875,8.72802734375,5.310058116912842,32.5927734375
0.9046630859375,-0.1322021484375,0.373291015625,9.58251953125,6.164550304412842,40.466304779052734
0.8780517578125,-0.09814453125,0.3848876953125,4.69970703125,7.324218273162842,48.095699310302734
0.873046875,-0.0963134765625,0.3568115234375,2.25830078125,9.82666015625,57.922359466552734
0.87646484375,-0.0438232421875,0.331787109375,-7.263183116912842,12.939452171325684,68.4814453125
0.83349609375,-0.0037841796875,0.334716796875,-19.71435546875,16.78466796875,77.81982421875
0.865478515625,0.03466796875,0.2667236328125,-24.658201217651367,21.240232467651367,89.23339080810547
0.852783203125,0.13525390625,0.2960205078125,-40.588375091552734,21.728513717651367,92.34618377685547
0.8250732421875,0.248046875,0.2576904296875,-45.593257904052734,30.700681686401367,95.03173065185547
0.8499755859375,0.2913818359375,0.1845703125,-52.856441497802734,30.822751998901367,96.13036346435547
0.82373046875,0.4599609375,0.143310546875,-39.9169921875,33.26416015625,95.39794158935547
0.835205078125,0.462646484375,0.1009521484375,-37.65869140625,29.296873092651367,92.65135955810547
0.8231201171875,0.5643310546875,0.10107421875,-34.85107421875,23.925779342651367,89.11132049560547
0.7689208984375,0.5799560546875,0.0968017578125,-27.282712936401367,22.399900436401367,84.53368377685547
0.7427978515625,0.6903076171875,0.0592041015625,-19.10400390625,21.240232467651367,81.54296112060547
0.7083740234375,0.7120361328125,0.05029296875,-12.573241233825684,17.333984375,77.63671875
0.6492919921875,0.7098388671875,0.05322265625,-8.7890625,19.10400390625,73.486328125
0.66748046875,0.7908935546875,0.02197265625,-2.807616949081421,18.49365234375,69.7021484375
0.6060791015625,0.78369140625,0.0361328125,-9.21630859375,15.930174827575684,65.97900390625
0.587890625,0.8370361328125,0.0225830078125,-11.657713890075684,16.357421875,61.584468841552734
0.528564453125,0.8043212890625,0.028076171875,-14.099120140075684,16.9677734375,59.692378997802734
0.515869140625,0.864990234375,0.0020751953125,-13.305663108825684,17.27294921875,57.983394622802734
0.4766845703125,0.8497314453125,-0.0347900390625,-9.21630859375,16.29638671875,56.396480560302734
0.4599609375,0.935791015625,-0.035888671875,-6.774901866912842,14.587401390075684,54.260250091552734
0.42138671875,0.9039306640625,-0.03759765625,-15.075682640075684,13.732909202575684,50.659175872802734
0.36181640625,0.8980712890625,-0.0101318359375,-16.9677734375,17.15087890625,48.828121185302734
0.3648681640625,0.949951171875,-0.0697021484375,-13.305663108825684,19.53125,46.997066497802734
0.328125,0.9521484375,-0.1014404296875,-12.329100608825684,17.15087890625,47.790523529052734
0.311767578125,0.9931640625,-0.099853515625,-10.314940452575684,15.686034202575684,44.555660247802734
0.2779541015625,0.9610595703125,-0.09716796875,-12.878417015075684,14.587401390075684,41.015621185302734
0.2333984375,0.9517822265625,-0.096923828125,-8.7890625,16.7236328125,41.015621185302734
0.2200927734375,0.9803466796875,-0.1322021484375,-7.263183116912842,16.17431640625,39.24560546875
0.175537109375,0.98095703125,-0.1514892578125,-5.0048828125,14.465331077575684,42.724605560302734
0.16064453125,0.9986572265625,-0.137939453125,-5.676269054412842,12.451170921325684,44.006343841552734
0.1292724609375,0.969482421875,-0.1234130859375,-6.408690929412842,14.587401390075684,39.85595703125
0.1046142578125,0.9920654296875,-0.1390380859375,-2.38037109375,15.258788108825684,46.447750091552734
0.0701904296875,1.0101318359375,-0.1654052734375,1.3427733182907104,14.526366233825684,37.7197265625
0.047119140625,1.014892578125,-0.169677734375,1.9531248807907104,13.000487327575684,32.5927734375
0.021728515625,1.0179443359375,-0.1475830078125,2.990722417831421,11.413573265075684,28.991697311401367
0.0126953125,0.991455078125,-0.1514892578125,1.8920897245407104,10.131834983825684,24.902341842651367
-0.0045166015625,0.9932861328125,-0.1474609375,2.929687261581421,8.60595703125,22.216794967651367
-0.021728515625,1.006103515625,-0.1474609375,1.15966796875,5.126952648162842,32.3486328125
-0.0338134765625,0.99853515625,-0.1536865234375,0.30517578125,2.746581792831421,16.6015625
-0.0552978515625,1.0003662109375,-0.1285400390625,-0.7324218153953552,1.4038084745407104,16.29638671875
-0.056396484375,1.0103759765625,-0.1282958984375,-3.662109136581421,0.54931640625,12.939452171325684
-0.05712890625,1.01806640625,-0.14794921875,-1.7089842557907104,-0.0610351525247097,8.30078125
-0.0694580078125,1.0260009765625,-0.1556396484375,-0.6103515625,-2.01416015625,3.540038824081421
-0.0787353515625,1.0146484375,-0.15234375,2.25830078125,-3.356933355331421,-2.3193359375
-0.070068359375,0.9927978515625,-0.134521484375,4.150390625,-4.150390625,-6.530761241912842
-0.0526123046875,0.9769287109375,-0.1446533203125,8.23974609375,-5.126952648162842,-5.981444835662842
-0.043701171875,0.9737548828125,-0.139892578125,7.751464366912842,-5.554198741912842,-4.2724609375
-0.0513916015625,0.963134765625,-0.13525390625,4.69970703125,-5.310058116912842,-3.234863042831421
-0.0506591796875,0.9688720703125,-0.124755859375,3.173827886581421,-4.45556640625,-0.1220703050494194
-0.0419921875,0.9755859375,-0.1279296875,0.8544921278953552,-3.417968511581421,1.0986328125
-0.063720703125,0.98193359375,-0.1182861328125,0.54931640625,-2.3193359375,2.0751953125
-0.0474853515625,0.9969482421875,-0.1226806640625,1.15966796875,-2.0751953125,1.9531248807907104
-0.0638427734375,0.9871826171875,-0.114990234375,1.5258787870407104,-1.220703125,0.4272460639476776
-0.053955078125,0.9920654296875,-0.1224365234375,4.0283203125,-0.4272460639476776,-1.03759765625
-0.048095703125,0.9930419921875,-0.118408203125,2.929687261581421,-1.15966796875,-2.3193359375
-0.0460205078125,0.981201171875,-0.1041259765625,2.685546636581421,-0.30517578125,-2.50244140625
-0.0489501953125,0.98681640625,-0.106689453125,2.01416015625,0.0610351525247097,-1.4648436307907104
-0.0386962890625,0.9813232421875,-0.116455078125,1.5258787870407104,0.0,-0.3662109076976776
-0.0433349609375,0.9737548828125,-0.1077880859375,0.2441406100988388,0.2441406100988388,1.03759765625
-0.0509033203125,0.9808349609375,-0.110595703125,1.2817381620407104,0.6713866591453552,2.624511480331421
-0.0513916015625,0.9859619140625,-0.11181640625,0.3662109076976776,0.9765624403953552,2.50244140625
-0.056884765625,0.9857177734375,-0.1094970703125,1.6479490995407104,0.7934569716453552,1.8310545682907104
-0.0625,0.987060546875,-0.11083984375,1.4038084745407104,-0.30517578125,1.4648436307907104
-0.0433349609375,0.991943359375,-0.10595703125,3.112792730331421,-1.7089842557907104,-2.13623046875
-0.0615234375,0.983154296875,-0.10693359375,2.197265625,-0.4272460639476776,-0.30517578125
-0.06396484375,0.9776611328125,-0.10498046875,-0.1220703050494194,-1.15966796875,-1.5869139432907104
-0.0615234375,0.978759765625,-0.10400390625,1.0986328125,-0.4272460639476776,-0.8544921278953552
-0.0521240234375,0.987060546875,-0.103271484375,0.0,-0.6713866591453552,-0.9155272841453552
0.03759765625,2.131591796875,-0.4588623046875,-43.395992279052734,-59.936519622802734,-181.70164489746094
-0.099365234375,1.8602294921875,-0.2852783203125,-18.6767578125,-83.31298065185547,-257.8125
0.2008056640625,1.5360107421875,-0.4072265625,53.527828216552734,-104.18700408935547,-299.98779296875
0.419921875,1.1583251953125,-0.3546142578125,125.36620330810547,-134.09423828125,-309.99755859375
0.0364990234375,0.37353515625,-0.1402587890625,118.71337127685547,-117.24852752685547,-311.46240234375
-0.0283203125,0.0086669921875,0.121826171875,144.47021484375,-94.84862518310547,-298.4619140625
-0.1107177734375,-0.08642578125,0.228271484375,104.06493377685547,-66.40625,-280.82275390625
0.06396484375,-0.248779296875,0.1466064453125,57.434078216552734,-36.376953125,-217.89549255371094
0.4034423828125,-0.1881103515625,0.2781982421875,-1.2817381620407104,-13.427733421325684,-154.23583984375
0.68896484375,-0.2327880859375,0.2799072265625,2.624511480331421,-3.234863042831421,-104.91942596435547
0.8131103515625,-0.3173828125,0.4322509765625,10.253905296325684,-6.774901866912842,-58.898921966552734
0.9483642578125,-0.3564453125,0.408203125,22.216794967651367,-1.2817381620407104,-36.376953125
0.9862060546875,-0.38232421875,0.430419921875,20.690916061401367,-3.051757574081421,-21.057126998901367
0.9395751953125,-0.3084716796875,0.430419921875,1.5258787870407104,3.479003667831421,-10.131834983825684
0.95556640625,-0.360107421875,0.3787841796875,-7.751464366912842,0.7324218153953552,-2.13623046875
0.8941650390625,-0.2938232421875,0.338623046875,-5.920409679412842,2.746581792831421,9.70458984375
0.9666748046875,-0.3013916015625,0.30322265625,-5.249022960662842,-2.38037109375,17.02880859375
0.92724609375,-0.25927734375,0.3809814453125,-5.249022960662842,-3.601073980331421,23.559568405151367
0.9080810546875,-0.236572265625,0.3680419921875,1.7700194120407104,-1.0986328125,35.2783203125
0.8924560546875,-0.2322998046875,0.364013671875,-0.7934569716453552,-2.50244140625,48.339839935302734
0.8017578125,-0.164794921875,0.38232421875,1.220703125,1.4648436307907104,67.44384765625
0.7813720703125,-0.1248779296875,0.3189697265625,0.54931640625,4.33349609375,87.82958221435547
0.735107421875,-0.076904296875,0.3048095703125,-12.084959983825684,-0.0610351525247097,108.88671112060547
0.6583251953125,0.002685546875,0.308837890625,-20.629880905151367,11.352538108825684,129.33349609375
0.734619140625,0.1119384765625,0.3079833984375,-33.26416015625,17.76123046875,136.8408203125
0.74658203125,0.306884765625,0.2972412109375,-50.048824310302734,26.428220748901367,136.474609375
0.880126953125,0.3985595703125,0.143798828125,-54.382320404052734,32.958984375,132.99560546875
0.8309326171875,0.5234375,0.22021484375,-63.537593841552734,27.404783248901367,123.59618377685547
0.762939453125,0.62548828125,0.1763916015625,-66.0400390625,29.785154342651367,114.25780487060547
0.7420654296875,0.6939697265625,0.15576171875,-50.292964935302734,29.479978561401367,108.09325408935547
0.646728515625,0.7587890625,0.1324462890625,-31.982419967651367,34.60693359375,100.58592987060547
0.6221923828125,0.78076171875,0.0672607421875,-12.268065452575684,33.87451171875,94.48241424560547
0.5723876953125,0.837646484375,0.0382080078125,-7.873534679412842,33.8134765625,88.56200408935547
0.5360107421875,0.87353515625,0.0185546875,-8.36181640625,30.090330123901367,82.09227752685547
0.532470703125,0.919189453125,0.02587890625,-14.587401390075684,25.817869186401367,74.89013671875
0.47412109375,0.924072265625,-0.000732421875,-22.583005905151367,25.756834030151367,68.29833984375
0.496337890625,1.0032958984375,-0.058837890625,-22.094724655151367,22.460935592651367,60.119625091552734
0.4093017578125,0.9730224609375,-0.0277099609375,-21.240232467651367,17.7001953125,52.307125091552734
0.3836669921875,0.9599609375,-0.05712890625,-11.352538108825684,18.1884765625,48.706050872802734
0.3770751953125,0.9954833984375,-0.08447265625,-5.065917491912842,15.319823265075684,44.372554779052734
0.3287353515625,0.9542236328125,-0.0506591796875,-3.845214605331421,14.343260765075684,38.6962890625
0.32421875,0.9979248046875,-0.083984375,-2.197265625,11.962889671325684,35.0341796875
0.2801513671875,0.943115234375,-0.0675048828125,-5.920409679412842,11.169432640075684,31.372068405151367
0.2757568359375,0.962158203125,-0.0810546875,-5.065917491912842,11.047362327575684,31.494138717651367
0.2667236328125,0.9566650390625,-0.09326171875,-6.958007335662842,9.33837890625,28.503416061401367
0.2532958984375,0.9661865234375,-0.072021484375,-5.065917491912842,9.765625,32.470703125
0.233642578125,1.0001220703125,-0.0855712890625,-2.3193359375,10.192870140075684,29.174802780151367
0.2008056640625,0.9869384765625,-0.0880126953125,-0.8544921278953552,9.765625,33.50830078125
0.1781005859375,0.9927978515625,-0.0867919921875,0.54931640625,11.779784202575684,27.221677780151367
0.1507568359375,0.9794921875,-0.0968017578125,3.295898199081421,12.329100608825684,27.099607467651367
0.132080078125,0.9820556640625,-0.098388671875,7.812499523162842,12.084959983825684,27.038572311401367
0.1099853515625,0.963134765625,-0.0928955078125,7.324218273162842,10.437010765075684,26.245115280151367
0.0953369140625,0.970947265625,-0.089111328125,8.1787109375,9.8876953125,31.982419967651367
0.07421875,0.9833984375,-0.0914306640625,3.540038824081421,9.21630859375,30.883787155151367
0.0576171875,0.9949951171875,-0.0870361328125,0.54931640625,9.27734375,32.65380859375
0.0303955078125,0.9952392578125,-0.088134765625,-3.662109136581421,8.11767578125,40.344234466552734
-0.0023193359375,1.0289306640625,-0.095703125,-2.807616949081421,9.1552734375,26.184080123901367
-0.0174560546875,1.0614013671875,-0.115966796875,-0.7934569716453552,6.530761241912842,18.798828125
-0.0166015625,1.0831298828125,-0.12060546875,5.615233898162842,2.0751953125,9.09423828125
-0.0306396484375,1.056884765625,-0.0997314453125,4.57763671875,-2.685546636581421,0.2441406100988388
-0.0196533203125,1.0108642578125,-0.0831298828125,6.164550304412842,-4.94384765625,-3.967284917831421
-0.0125732421875,0.98486328125,-0.0693359375,2.746581792831421,-5.187987804412842,-5.493163585662842
-0.0093994140625,0.9637451171875,-0.0787353515625,3.112792730331421,-3.723144292831421,-3.540038824081421
-0.00146484375,0.97314453125,-0.078369140625,2.38037109375,-2.746581792831421,0.1831054538488388
-0.000244140625,0.9744873046875,-0.0604248046875,0.0610351525247097,-2.563476324081421,2.25830078125
-0.008544921875,0.976806640625,-0.052978515625,-1.220703125,-0.30517578125,5.249022960662842
-0.0223388671875,0.9853515625,-0.0633544921875,-2.563476324081421,2.0751953125,5.615233898162842
-0.0234375,1.0003662109375,-0.0799560546875,-0.9155272841453552,2.197265625,4.0283203125
-0.035400390625,1.0035400390625,-0.072998046875,0.4882812201976776,1.7089842557907104,1.8310545682907104
-0.036376953125,0.9898681640625,-0.0712890625,2.13623046875,1.0986328125,-0.9765624403953552
-0.02783203125,0.9945068359375,-0.07470703125,3.295898199081421,0.9155272841453552,-3.051757574081421
-0.01318359375,0.9918212890625,-0.072998046875,2.3193359375,-0.2441406100988388,-3.173827886581421
-0.0147705078125,0.9796142578125,-0.0699462890625,2.50244140625,-0.7934569716453552,-2.3193359375
-0.0189208984375,0.9830322265625,-0.0703125,3.051757574081421,-0.7324218153953552,-0.8544921278953552
-0.0125732421875,0.9847412109375,-0.072509765625,1.8310545682907104,-1.220703125,0.1831054538488388
-0.017333984375,0.986328125,-0.0482177734375,0.54931640625,-0.9155272841453552,0.7324218153953552
-0.01953125,0.98876953125,-0.0614013671875,0.4882812201976776,0.0,1.5869139432907104
-0.021240234375,0.996826171875,-0.0655517578125,-0.4272460639476776,0.3662109076976776,0.0610351525247097
-0.022216796875,0.995849609375,-0.059326171875,0.6713866591453552,-0.1220703050494194,-0.3662109076976776
-0.0179443359375,0.987548828125,-0.057373046875,0.9155272841453552,0.1831054538488388,-0.30517578125
-0.0252685546875,0.98291015625,-0.0657958984375,1.9531248807907104,0.8544921278953552,-0.7934569716453552
-0.024169921875,0.9842529296875,-0.06884765625,0.2441406100988388,0.2441406100988388,-1.03759765625
-0.0263671875,0.9873046875,-0.0572509765625,-0.4882812201976776,0.1831054538488388,-0.9155272841453552
-0.011962890625,0.9954833984375,-0.0618896484375,0.30517578125,-0.8544921278953552,-0.4882812201976776
-0.0260009765625,0.9892578125,-0.060302734375,0.30517578125,-1.220703125,-0.6713866591453552
-0.01806640625,0.989990234375,-0.0634765625,1.0986328125,-1.03759765625,-1.0986328125
-0.0189208984375,0.986083984375,-0.060302734375,0.6713866591453552,-0.3662109076976776,-1.5869139432907104
-0.022216796875,0.9840087890625,-0.054443359375,0.1831054538488388,-0.2441406100988388,-0.9765624403953552
-0.0198974609375,0.9854736328125,-0.05615234375,-0.6713866591453552,-0.1220703050494194,-0.30517578125
-0.02099609375,0.9859619140625,-0.0614013671875,-0.4882812201976776,0.4882812201976776,-0.1220703050494194
-0.021484375,0.9915771484375,-0.0609130859375,-1.220703125,0.9155272841453552,-0.2441406100988388
-0.014892578125,0.9915771484375,-0.0657958984375,-0.7934569716453552,1.15966796875,-0.6103515625
-0.02294921875,0.9876708984375,-0.0609130859375,-1.15966796875,1.3427733182907104,-1.0986328125
-0.0206298828125,0.9896240234375,-0.0709228515625,0.4882812201976776,1.03759765625,-1.5869139432907104
-0.01025390625,0.9949951171875,-0.0753173828125,0.6103515625,-0.1831054538488388,-0.9155272841453552
-0.0128173828125,0.9888916015625,-0.0662841796875,0.9155272841453552,-0.6103515625,-0.1831054538488388
-0.0196533203125,0.9854736328125,-0.070068359375,1.6479490995407104,-0.6713866591453552,0.7934569716453552
-0.0247802734375,0.98681640625,-0.0675048828125,0.4882812201976776,-1.5258787870407104,0.8544921278953552
-0.023681640625,0.984375,-0.0665283203125,0.0610351525247097,-1.7700194120407104,0.1220703050494194
-0.0250244140625,0.988525390625,-0.06201171875,0.9765624403953552,-1.4648436307907104,-0.1831054538488388
