time,ax,ay,az,gx,gy,gz,label,person
1772890010.398463,-0.955322265625,-0.2119140625,-0.15087890625,-0.9765624403953552,-0.1831054538488388,0.4882812201976776,4,dennis
1772890010.4473574,-0.945556640625,-0.2197265625,-0.154541015625,-1.8310545682907104,-0.3662109076976776,0.1220703050494194,4,dennis
1772890010.5214446,-0.935546875,-0.215087890625,-0.14697265625,-1.7700194120407104,-0.54931640625,0.1220703050494194,4,dennis
1772890010.5214446,-0.957763671875,-0.214599609375,-0.150146484375,-2.563476324081421,-0.2441406100988388,1.4038084745407104,4,dennis
1772890010.6059403,-0.982421875,-0.2198486328125,-0.156982421875,-2.624511480331421,0.30517578125,2.50244140625,4,dennis
1772890010.6386943,-0.9857177734375,-0.2115478515625,-0.155517578125,0.1220703050494194,0.3662109076976776,2.38037109375,4,dennis
1772890010.6386943,-0.967041015625,-0.2200927734375,-0.142578125,1.4038084745407104,0.1220703050494194,1.4038084745407104,4,dennis
1772890010.6552734,-0.9483642578125,-0.225830078125,-0.1583251953125,2.01416015625,0.2441406100988388,0.6103515625,4,dennis
1772890010.6967163,-0.9520263671875,-0.2196044921875,-0.144775390625,0.4882812201976776,0.2441406100988388,-0.8544921278953552,4,dennis
1772890010.73112,-0.94775390625,-0.218994140625,-0.147705078125,-0.6103515625,-0.6103515625,-0.6713866591453552,4,dennis
1772890010.7841823,-0.93310546875,-0.218017578125,-0.150390625,-2.0751953125,-0.7324218153953552,-0.4882812201976776,4,dennis
1772890010.8501608,-0.9228515625,-0.20947265625,-0.149169921875,-1.2817381620407104,-0.1831054538488388,-0.54931640625,4,dennis
1772890010.8805888,-0.904296875,-0.2120361328125,-0.1519775390625,0.54931640625,0.1220703050494194,-0.30517578125,4,dennis
1772890010.8956182,-0.87109375,-0.197265625,-0.1500244140625,1.9531248807907104,-0.30517578125,0.7934569716453552,4,dennis
1772890010.951487,-0.8907470703125,-0.21875,-0.1640625,2.807616949081421,0.1220703050494194,1.4648436307907104,4,dennis
1772890011.0145822,-0.9112548828125,-0.2071533203125,-0.156494140625,3.967284917831421,0.2441406100988388,0.6713866591453552,4,dennis
1772890011.0322697,-0.9676513671875,-0.2120361328125,-0.148681640625,3.173827886581421,-0.3662109076976776,1.3427733182907104,4,dennis
1772890011.047003,-1.045654296875,-0.2333984375,-0.197265625,-0.3662109076976776,-0.1220703050494194,-0.2441406100988388,4,dennis
1772890011.1522472,-1.059814453125,-0.20703125,-0.162353515625,2.685546636581421,-0.7934569716453552,-2.746581792831421,4,dennis
1772890011.2063107,-1.0478515625,-0.2283935546875,-0.17578125,3.234863042831421,-2.197265625,-1.2817381620407104,4,dennis
1772890011.2063107,-0.9874267578125,-0.2060546875,-0.151611328125,2.746581792831421,-3.601073980331421,1.5869139432907104,4,dennis
1772890011.2257254,-0.933349609375,-0.22265625,-0.14697265625,0.4272460639476776,-2.746581792831421,2.807616949081421,4,dennis
1772890011.240082,-0.90234375,-0.2060546875,-0.1575927734375,1.6479490995407104,-1.9531248807907104,3.295898199081421,4,dennis
1772890011.286805,-0.9410400390625,-0.22314453125,-0.1412353515625,0.4272460639476776,-0.1220703050494194,2.929687261581421,4,dennis
1772890011.3321383,-1.11474609375,-0.201171875,-0.1531982421875,-0.1220703050494194,0.4272460639476776,3.479003667831421,4,dennis
1772890011.345119,-1.3594970703125,-0.1580810546875,-0.1982421875,-1.6479490995407104,-1.6479490995407104,12.512206077575684,4,dennis
1772890011.3877025,-1.6436767578125,-0.1483154296875,-0.2705078125,-12.145995140075684,-10.070799827575684,26.977537155151367,4,dennis
1772890011.4658952,-1.6832275390625,-0.1741943359375,-0.3160400390625,-16.66259765625,-32.3486328125,71.71630859375,4,dennis
1772890011.4682496,-1.778564453125,-0.3192138671875,-0.365966796875,-16.7236328125,-44.433589935302734,119.99510955810547,4,dennis
1772890011.5937557,-1.6702880859375,-0.5948486328125,-0.494384765625,-9.8876953125,-52.795406341552734,150.81787109375,4,dennis
1772890011.5937557,-1.115478515625,-0.48828125,-0.3037109375,1.8310545682907104,-37.78076171875,145.20263671875,4,dennis
1772890011.602258,-0.7283935546875,-0.6541748046875,-0.380126953125,8.056640625,-27.404783248901367,116.69921112060547,4,dennis
1772890011.653707,-0.4300537109375,-0.5465087890625,-0.2586669921875,17.822265625,-16.66259765625,82.70262908935547,4,dennis
1772890011.653707,-0.261962890625,-0.5496826171875,-0.1337890625,22.033689498901367,-4.33349609375,51.391597747802734,4,dennis
1772890012.2000256,-0.2166748046875,-0.4837646484375,-0.1343994140625,28.503416061401367,-5.310058116912842,18.1884765625,4,dennis
1772890012.201073,-0.1851806640625,-0.4482421875,-0.087646484375,13.916014671325684,3.112792730331421,-0.9765624403953552,4,dennis
1772890012.201073,-0.08056640625,-0.4197998046875,-0.0654296875,24.597166061401367,5.432128429412842,-8.48388671875,4,dennis
1772890012.3222415,-0.203369140625,-0.437744140625,-0.10595703125,4.638671875,7.812499523162842,-6.286620616912842,4,dennis
1772890012.3784587,-0.583251953125,-0.535888671875,-0.221435546875,-2.624511480331421,11.718749046325684,9.8876953125,4,dennis
1772890012.5015004,-0.6934814453125,-0.70849609375,-0.3431396484375,7.751464366912842,3.173827886581421,-0.2441406100988388,4,dennis
1772890012.5015004,-0.7008056640625,-0.6380615234375,-0.23046875,-16.05224609375,-1.03759765625,1.5258787870407104,4,dennis
1772890012.5015004,-0.68017578125,-0.6614990234375,-0.2841796875,11.779784202575684,3.784179449081421,3.601073980331421,4,dennis
1772890012.6215308,-0.3629150390625,-0.5130615234375,-0.1806640625,2.13623046875,-2.868652105331421,-0.2441406100988388,4,dennis
1772890012.680523,-0.341796875,-0.4127197265625,-0.0064697265625,-12.084959983825684,-12.573241233825684,-8.9111328125,4,dennis
1772890012.680523,-0.4827880859375,-0.54052734375,-0.3121337890625,27.465818405151367,14.892577171325684,-13.732909202575684,4,dennis
1772890012.680523,-0.61279296875,-0.389892578125,-0.0302734375,-54.687496185302734,-8.1787109375,-29.479978561401367,4,dennis
1772890012.6859477,-0.580322265625,-0.6536865234375,-0.3438720703125,11.962889671325684,34.72900390625,-30.700681686401367,4,dennis
1772890012.740478,-0.8524169921875,-0.6785888671875,-0.169189453125,-31.677244186401367,10.070799827575684,-42.358394622802734,4,dennis
1772890012.740478,-1.131591796875,-0.520751953125,-0.03564453125,-25.573728561401367,49.804683685302734,-66.5283203125,4,dennis
1772890012.918161,-0.525146484375,-0.8192138671875,-0.5369873046875,10.559081077575684,24.230955123901367,-61.950679779052734,4,dennis
1772890012.918161,-1.0791015625,-0.3800048828125,0.24853515625,-41.992183685302734,31.372068405151367,-72.81494140625,4,dennis
1772890012.918161,-0.7996826171875,-0.6007080078125,-0.337890625,38.02490234375,38.87939453125,-68.9697265625,4,dennis
1772890012.918161,-1.2294921875,-0.5955810546875,-0.0302734375,-38.2080078125,34.36279296875,-79.65087890625,4,dennis
1772890012.9755716,-1.2547607421875,-0.3485107421875,-0.1273193359375,22.277830123901367,39.55078125,-59.997554779052734,4,dennis
1772890012.9755716,-0.9288330078125,-0.45556640625,-0.1400146484375,5.065917491912842,23.010251998901367,-57.922359466552734,4,dennis
1772890013.159481,-1.0648193359375,-0.294677734375,0.0162353515625,19.04296875,29.602048873901367,-57.067867279052734,4,dennis
1772890013.2198067,-1.1357421875,-0.3607177734375,-0.162353515625,53.283687591552734,29.785154342651367,-50.781246185302734,4,dennis
1772890013.2198067,-1.1883544921875,-0.3165283203125,-0.130859375,32.89794921875,15.930174827575684,-34.85107421875,4,dennis
1772890013.2788208,-1.1505126953125,-0.060302734375,0.003662109375,35.15625,18.310546875,-17.333984375,4,dennis
1772890013.3373973,-1.0972900390625,-0.259765625,-0.146728515625,41.015621185302734,11.169432640075684,-14.831542015075684,4,dennis
1772890013.395492,-1.0850830078125,-0.1041259765625,-0.0528564453125,16.17431640625,2.38037109375,2.13623046875,4,dennis
1772890013.5188682,-1.027587890625,-0.2470703125,-0.068359375,2.38037109375,-1.4648436307907104,7.385253429412842,4,dennis
1772890013.637804,-1.0125732421875,-0.1524658203125,-0.0218505859375,-11.108397483825684,-3.356933355331421,3.845214605331421,4,dennis
1772890014.0001113,-0.9556884765625,-0.2274169921875,-0.0618896484375,-1.6479490995407104,-3.417968511581421,2.868652105331421,4,dennis
1772890014.0001113,-0.9365234375,-0.233154296875,-0.0821533203125,-11.779784202575684,-8.72802734375,0.7324218153953552,4,dennis
1772890014.0001113,-0.982666015625,-0.2286376953125,-0.0848388671875,-5.187987804412842,-8.1787109375,1.4038084745407104,4,dennis
1772890014.0575345,-0.9639892578125,-0.25390625,-0.0797119140625,4.33349609375,-4.21142578125,-3.601073980331421,4,dennis
1772890014.0575345,-0.79833984375,-0.2393798828125,-0.0665283203125,-4.69970703125,-2.807616949081421,0.3662109076976776,4,dennis
1772890014.0575345,-1.56494140625,-0.6240234375,-0.24755859375,-35.09521484375,-51.940914154052734,136.1083984375,4,dennis
1772890014.1190586,-1.086669921875,-0.67236328125,-0.1929931640625,3.662109136581421,-38.57421875,125.42723846435547,4,dennis
1772890014.3015523,-0.720947265625,-0.66259765625,-0.228271484375,-6.469726085662842,-27.404783248901367,93.26171112060547,4,dennis
1772890014.3015523,-0.557861328125,-0.6695556640625,-0.1611328125,6.896972179412842,-10.559081077575684,64.75830078125,4,dennis
1772890014.3015523,-0.26904296875,-0.5797119140625,-0.187744140625,14.892577171325684,-4.57763671875,31.860349655151367,4,dennis
1772890014.360478,-0.0753173828125,-0.425537109375,-0.0008544921875,19.22607421875,10.681151390075684,-1.5869139432907104,4,dennis
1772890014.4183006,-0.02685546875,-0.3096923828125,-0.07568359375,7.507323741912842,14.709471702575684,-13.061522483825684,4,dennis
1772890014.4781427,-0.177490234375,-0.4052734375,0.0933837890625,-7.019042491912842,13.427733421325684,5.554198741912842,4,dennis
1772890014.539063,-0.410888671875,-0.4112548828125,-0.2041015625,0.54931640625,17.2119140625,17.578125,4,dennis
1772890014.6557732,-0.5052490234375,-0.5611572265625,-0.04248046875,-45.166011810302734,9.27734375,22.705076217651367,4,dennis
1772890014.718248,-0.6795654296875,-0.5390625,-0.1024169921875,-2.624511480331421,10.742186546325684,23.681638717651367,4,dennis
1772890014.8959515,-0.7752685546875,-0.7440185546875,-0.2734375,-23.376462936401367,3.967284917831421,16.41845703125,4,dennis
1772890014.9017518,-0.796630859375,-0.6048583984375,-0.0872802734375,-4.08935546875,2.44140625,12.695311546325684,4,dennis
1772890015.015203,-0.725341796875,-0.7198486328125,-0.18896484375,17.02880859375,7.324218273162842,-1.9531248807907104,4,dennis
1772890015.015203,-0.7210693359375,-0.6656494140625,-0.0963134765625,10.253905296325684,4.2724609375,-8.36181640625,4,dennis
1772890015.015203,-0.7220458984375,-0.6527099609375,-0.1689453125,2.624511480331421,-5.737304210662842,7.385253429412842,4,dennis
1772890015.0233624,-0.8345947265625,-0.6856689453125,-0.19287109375,-3.173827886581421,-4.2724609375,7.202147960662842,4,dennis
1772890015.0801768,-0.6922607421875,-0.6422119140625,-0.1287841796875,2.746581792831421,5.798339366912842,-10.864256858825684,4,dennis
1772890015.0801768,-0.4473876953125,-0.53955078125,-0.074951171875,4.638671875,-0.4272460639476776,-15.869139671325684,4,dennis
1772890015.1407483,-0.218994140625,-0.40234375,-0.0516357421875,-6.042479991912842,-13.366698265075684,-11.474608421325684,4,dennis
1772890015.1954482,-0.2420654296875,-0.4940185546875,0.06982421875,-14.465331077575684,-9.6435546875,-5.798339366912842,4,dennis
1772890015.25525,-0.18115234375,-0.3477783203125,-0.2840576171875,10.986327171325684,-23.559568405151367,-3.967284917831421,4,dennis
1772890015.25525,-0.3482666015625,-0.6031494140625,0.0247802734375,-32.3486328125,-26.245115280151367,-6.713866710662842,4,dennis
1772890015.3145285,-0.34765625,-0.253662109375,-0.2216796875,16.05224609375,-14.953612327575684,-17.27294921875,4,dennis
1772890015.3145285,-0.643310546875,-1.0362548828125,-0.269287109375,-16.6015625,2.624511480331421,-24.780271530151367,4,dennis
1772890015.439788,-0.694091796875,-0.44189453125,-0.23486328125,22.705076217651367,11.230467796325684,-46.630855560302734,4,dennis
1772890015.4426246,-0.9759521484375,-0.8240966796875,-0.349365234375,-6.591796398162842,23.803709030151367,-57.495113372802734,4,dennis
1772890015.4426246,-0.8916015625,-0.8486328125,-0.07666015625,7.446288585662842,16.29638671875,-68.17626953125,4,dennis
1772890015.4955184,-1.5030517578125,-0.40576171875,-0.19677734375,23.742673873901367,38.6962890625,-68.54248046875,4,dennis
1772890015.5544164,-0.8162841796875,-0.7451171875,-0.3388671875,12.084959983825684,23.559568405151367,-69.15283203125,4,dennis
1772890015.5544164,-1.2880859375,-0.292724609375,0.09716796875,-6.286620616912842,18.73779296875,-73.18115234375,4,dennis
1772890015.6146026,-1.2529296875,-0.435302734375,-0.1468505859375,23.315427780151367,26.916501998901367,-55.908199310302734,4,dennis
1772890015.6806047,-1.005859375,-0.491943359375,-0.2314453125,4.5166015625,15.380858421325684,-49.987789154052734,4,dennis
1772890015.6806047,-1.10205078125,-0.2396240234375,0.0450439453125,-5.981444835662842,15.624999046325684,-49.743648529052734,4,dennis
1772890015.742581,-1.357666015625,-0.2615966796875,-0.2265625,23.620603561401367,27.038572311401367,-40.588375091552734,4,dennis
1772890015.742581,-1.1551513671875,-0.461669921875,-0.13720703125,-15.686034202575684,4.5166015625,-37.41455078125,4,dennis
1772890016.22236,-1.1346435546875,0.0902099609375,-0.02978515625,-12.329100608825684,8.36181640625,-25.146482467651367,4,dennis
1772890016.22236,-1.05078125,-0.298828125,-0.132080078125,-1.9531248807907104,1.4648436307907104,-11.413573265075684,4,dennis
1772890016.22236,-1.01513671875,-0.1466064453125,-0.0628662109375,-21.240232467651367,0.2441406100988388,-7.934569835662842,4,dennis
1772890016.2814755,-1.00732421875,-0.168701171875,-0.126220703125,3.601073980331421,1.4038084745407104,-2.868652105331421,4,dennis
1772890016.2814755,-0.896240234375,-0.271728515625,-0.124267578125,14.038084983825684,-1.4038084745407104,0.1831054538488388,4,dennis
1772890016.2814755,-0.778564453125,-0.2191162109375,-0.023193359375,-10.070799827575684,-1.03759765625,3.723144292831421,4,dennis
1772890016.3985553,-0.689208984375,-0.2044677734375,-0.054443359375,0.54931640625,1.3427733182907104,3.967284917831421,4,dennis
1772890016.5799298,-0.7314453125,-0.266845703125,-0.0948486328125,-2.746581792831421,0.9765624403953552,0.6103515625,4,dennis
1772890016.5799298,-1.033935546875,-0.234375,-0.0096435546875,-7.080077648162842,4.69970703125,-7.080077648162842,4,dennis
1772890016.5799298,-1.6627197265625,-0.2398681640625,-0.1527099609375,-17.02880859375,5.981444835662842,-15.014647483825684,4,dennis
1772890016.585402,-1.9603271484375,0.0048828125,-0.3048095703125,-15.869139671325684,-13.793944358825684,16.29638671875,4,dennis
1772890016.6389048,-1.65673828125,-0.6031494140625,-0.3358154296875,29.541013717651367,-42.541500091552734,153.4423828125,4,dennis
1772890016.6389048,-1.10205078125,-0.6160888671875,-0.2049560546875,13.549803733825684,-42.785640716552734,143.5546875,4,dennis
1772890016.6956222,-0.729248046875,-0.523681640625,-0.086669921875,11.657713890075684,-24.414060592651367,106.32323455810547,4,dennis
1772890016.8203204,-0.329345703125,-0.6719970703125,-0.2528076171875,4.21142578125,-21.118162155151367,66.89453125,4,dennis
1772890016.998317,-0.2884521484375,-0.53564453125,-0.13720703125,20.263669967651367,-24.475095748901367,37.78076171875,4,dennis
1772890016.998317,-0.1724853515625,-0.5142822265625,0.0615234375,17.7001953125,-11.901854515075684,1.6479490995407104,4,dennis
1772890017.1199565,-0.1239013671875,-0.396728515625,-0.162109375,22.766111373901367,-2.807616949081421,-24.658201217651367,4,dennis
1772890017.1199565,-0.1510009765625,-0.4937744140625,-0.0526123046875,15.808104515075684,10.314940452575684,-32.71484375,4,dennis
1772890017.1199565,-0.5750732421875,-0.5347900390625,-0.1904296875,-19.8974609375,19.04296875,11.474608421325684,4,dennis
1772890017.1224375,-0.68359375,-0.57470703125,-0.04248046875,-44.372554779052734,8.36181640625,10.131834983825684,4,dennis
1772890017.2970552,-0.8695068359375,-0.602783203125,-0.174560546875,-17.88330078125,-1.4648436307907104,3.112792730331421,4,dennis
1772890017.2970552,-0.782958984375,-0.6060791015625,-0.2103271484375,5.432128429412842,2.929687261581421,-0.6103515625,4,dennis
1772890017.3565483,-0.767333984375,-0.66015625,-0.19921875,3.845214605331421,-0.6103515625,-0.9155272841453552,4,dennis
1772890017.3565483,-0.711181640625,-0.5784912109375,-0.0830078125,10.253905296325684,-0.1831054538488388,-0.9765624403953552,4,dennis
1772890017.3565483,-0.7867431640625,-0.59716796875,-0.1337890625,-4.33349609375,-2.868652105331421,3.479003667831421,4,dennis
1772890017.4820175,-0.81640625,-0.720947265625,-0.1953125,-4.7607421875,4.8828125,1.15966796875,4,dennis
1772890017.7208605,-0.8624267578125,-0.63427734375,-0.1558837890625,0.6103515625,3.784179449081421,-1.3427733182907104,4,dennis
1772890017.8407478,-0.87890625,-0.6766357421875,-0.202880859375,10.070799827575684,3.723144292831421,-5.554198741912842,4,dennis
1772890017.8407478,-0.812744140625,-0.6297607421875,-0.14453125,5.126952648162842,9.33837890625,-7.690429210662842,4,dennis
1772890017.8407478,-0.6561279296875,-0.605712890625,-0.1201171875,12.023924827575684,9.82666015625,-5.798339366912842,4,dennis
1772890017.8407478,-0.4154052734375,-0.4837646484375,-0.0030517578125,-5.432128429412842,-14.282225608825684,18.9208984375,4,dennis
1772890017.961454,-0.4708251953125,-0.7711181640625,-0.59326171875,-14.160155296325684,-7.568358898162842,-30.578611373901367,4,dennis
1772890018.0198102,-1.1771240234375,-0.5325927734375,0.2198486328125,11.840819358825684,4.638671875,-50.537105560302734,4,dennis
1772890018.0805268,-0.6717529296875,-0.64599609375,-0.6455078125,-5.737304210662842,5.920409679412842,-44.555660247802734,4,dennis
1772890018.0805268,-1.068603515625,-0.5845947265625,0.080810546875,-25.024412155151367,0.0,-50.659175872802734,4,dennis
1772890018.1394763,-1.1536865234375,-0.4287109375,-0.1807861328125,11.779784202575684,29.541013717651367,-45.104976654052734,4,dennis
1772890018.1999393,-0.7249755859375,-0.7640380859375,-0.450927734375,-7.629394054412842,13.671874046325684,-48.156734466552734,4,dennis
1772890018.1999393,-1.2261962890625,-0.3538818359375,0.0621337890625,-3.540038824081421,28.076169967651367,-43.701168060302734,4,dennis
1772890018.3759267,-0.8018798828125,-0.644775390625,-0.4134521484375,8.4228515625,23.376462936401367,-39.97802734375,4,dennis
1772890018.4408102,-1.1446533203125,-0.3826904296875,0.09130859375,-10.253905296325684,20.935056686401367,-47.912593841552734,4,dennis
1772890018.4408102,-1.0257568359375,-0.3681640625,-0.208251953125,20.507810592651367,28.991697311401367,-46.508785247802734,4,dennis
1772890018.4408102,-0.8887939453125,-0.46533203125,-0.17822265625,1.4038084745407104,15.747069358825684,-53.405757904052734,4,dennis
1772890018.4408102,-1.1632080078125,-0.3424072265625,-0.1138916015625,2.44140625,6.958007335662842,-38.57421875,4,dennis
1772890018.4991758,-1.119873046875,-0.202392578125,-0.15625,19.04296875,-1.2817381620407104,-8.544921875,4,dennis
1772890018.5595675,-0.998291015625,-0.220458984375,-0.0963134765625,3.723144292831421,-7.202147960662842,-4.0283203125,4,dennis
1772890018.6217134,-1.026123046875,-0.201416015625,-0.0244140625,-3.234863042831421,-6.103515148162842,-1.5258787870407104,4,dennis
1772890018.6217134,-0.9844970703125,-0.2376708984375,-0.1192626953125,-3.845214605331421,-8.1787109375,1.7089842557907104,4,dennis
1772890018.6217134,-0.9879150390625,-0.2203369140625,-0.089599609375,-14.343260765075684,-6.713866710662842,2.0751953125,4,dennis
1772890018.6808193,-0.995361328125,-0.2491455078125,-0.046630859375,-17.822265625,-5.676269054412842,1.2817381620407104,4,dennis
1772890019.0999377,-0.955810546875,-0.2210693359375,-0.1358642578125,-2.563476324081421,-6.347655773162842,2.0751953125,4,dennis
1772890019.2211716,-0.958984375,-0.2470703125,-0.0679931640625,-12.878417015075684,-4.8828125,-0.9765624403953552,4,dennis
1772890019.3982568,-0.978759765625,-0.2239990234375,-0.0626220703125,-4.8828125,-3.540038824081421,-0.7934569716453552,4,dennis
1772890019.3982568,-0.9730224609375,-0.24560546875,-0.124755859375,0.0610351525247097,-3.601073980331421,0.54931640625,4,dennis
1772890019.4615753,-0.9873046875,-0.260986328125,-0.11279296875,-1.03759765625,-0.6713866591453552,3.540038824081421,4,dennis
1772890019.4615753,-0.7254638671875,-0.2322998046875,-0.0562744140625,-1.15966796875,3.295898199081421,1.4648436307907104,4,dennis
1772890019.4615753,-1.5479736328125,-0.2396240234375,-0.0673828125,-20.202634811401367,9.94873046875,-10.742186546325684,4,dennis
1772890019.4632154,-2.0545654296875,-0.2186279296875,-0.2303466796875,24.536130905151367,-49.743648529052734,140.2587890625,4,dennis
1772890019.519833,-1.680908203125,-0.7340087890625,-0.4737548828125,36.2548828125,-46.936031341552734,142.39501953125,4,dennis
1772890019.5773196,-1.1142578125,-0.685302734375,-0.2003173828125,25.024412155151367,-33.63037109375,122.61962127685547,4,dennis
1772890019.5773196,-0.5189208984375,-0.715087890625,-0.1888427734375,25.756834030151367,-11.718749046325684,78.30810546875,4,dennis
1772890019.6398842,-0.16259765625,-0.571533203125,-0.217041015625,13.732909202575684,-1.6479490995407104,38.4521484375,4,dennis
1772890019.6398842,0.02783203125,-0.4632568359375,0.02587890625,19.53125,4.7607421875,-10.253905296325684,4,dennis
1772890019.760178,0.1201171875,-0.4947509765625,-0.0145263671875,27.404783248901367,15.502928733825684,-37.4755859375,4,dennis
1772890019.760178,0.1529541015625,-0.3760986328125,-0.0380859375,15.869139671325684,11.779784202575684,-45.654293060302734,4,dennis
1772890019.760178,-0.0284423828125,-0.25537109375,0.0338134765625,4.2724609375,17.88330078125,-25.878904342651367,4,dennis
1772890019.8209307,-0.2666015625,-0.3548583984375,-0.0772705078125,-3.479003667831421,17.39501953125,-3.662109136581421,4,dennis
1772890019.9361525,-0.5032958984375,-0.438232421875,-0.130126953125,-37.109375,9.82666015625,13.122557640075684,4,dennis
1772890019.9361525,-0.6661376953125,-0.4150390625,-0.0804443359375,-23.864744186401367,2.44140625,21.362302780151367,4,dennis
1772890019.9427042,-0.72705078125,-0.5452880859375,-0.20556640625,-37.17041015625,-2.624511480331421,17.2119140625,4,dennis
1772890020.0599637,-0.8480224609375,-0.5391845703125,-0.18701171875,-10.192870140075684,-3.662109136581421,15.319823265075684,4,dennis
1772890020.2416623,-0.862548828125,-0.5006103515625,-0.2596435546875,-3.784179449081421,2.197265625,9.033203125,4,dennis
1772890020.3015866,-0.8466796875,-0.594970703125,-0.2425537109375,2.868652105331421,-0.6103515625,3.906249761581421,4,dennis
1772890020.3015866,-0.8609619140625,-0.5924072265625,-0.2098388671875,15.380858421325684,4.8828125,2.563476324081421,4,dennis
1772890020.3015866,-0.8544921875,-0.609619140625,-0.186767578125,0.4882812201976776,2.929687261581421,-1.7089842557907104,4,dennis
1772890020.3042378,-0.743408203125,-0.5919189453125,-0.184814453125,3.234863042831421,-3.601073980331421,1.0986328125,4,dennis
1772890020.3589156,-0.8238525390625,-0.5556640625,-0.175048828125,-1.03759765625,2.868652105331421,4.21142578125,4,dennis
1772890020.3589156,-0.858154296875,-0.6519775390625,-0.2913818359375,1.03759765625,4.39453125,4.33349609375,4,dennis
1772890020.4160018,-0.869140625,-0.605712890625,-0.1553955078125,-0.6103515625,9.33837890625,3.173827886581421,4,dennis
1772890020.4815738,-0.73388671875,-0.5635986328125,-0.1124267578125,1.8310545682907104,3.845214605331421,0.3662109076976776,4,dennis
1772890020.4815738,-0.6224365234375,-0.5155029296875,-0.1324462890625,-1.8920897245407104,-0.6103515625,-0.1831054538488388,4,dennis
1772890020.5987694,-0.4937744140625,-0.419677734375,-0.1212158203125,-2.929687261581421,-9.1552734375,3.601073980331421,4,dennis
1772890020.5987694,-0.4599609375,-0.4302978515625,-0.05615234375,-6.530761241912842,-13.671874046325684,13.305663108825684,4,dennis
1772890020.6615038,-0.4000244140625,-0.469970703125,-0.1556396484375,-6.347655773162842,-17.02880859375,16.66259765625,4,dennis
1772890020.6615038,-0.5931396484375,-0.5552978515625,-0.0721435546875,-12.817381858825684,-18.61572265625,11.291502952575684,4,dennis
1772890020.6615038,-0.4739990234375,-0.4935302734375,-0.2501220703125,-1.5869139432907104,-27.648923873901367,10.925292015075684,4,dennis
1772890020.7202563,-0.772216796875,-0.651611328125,0.017822265625,-29.663084030151367,-14.526366233825684,2.990722417831421,4,dennis
1772890020.781829,-0.410888671875,-0.5401611328125,-0.5152587890625,18.12744140625,-29.602048873901367,-5.065917491912842,4,dennis
1772890020.8992414,-0.87548828125,-0.5751953125,0.1201171875,-44.616695404052734,-8.544921875,-13.854979515075684,4,dennis
1772890021.0206847,-0.3765869140625,-0.6553955078125,-0.50927734375,30.090330123901367,-10.742186546325684,-14.709471702575684,4,dennis
1772890021.0206847,-0.994140625,-0.5665283203125,-0.04541015625,-48.095699310302734,3.540038824081421,-26.000974655151367,4,dennis
1772890021.0206847,-0.4556884765625,-0.669677734375,-0.497314453125,8.056640625,-0.1220703050494194,-33.5693359375,4,dennis
1772890021.0206847,-1.06103515625,-0.4989013671875,0.044921875,-43.395992279052734,10.925292015075684,-47.912593841552734,4,dennis
1772890021.080509,-1.039306640625,-0.3236083984375,-0.2296142578125,8.1787109375,20.874021530151367,-51.086421966552734,4,dennis
1772890021.1407793,-0.860595703125,-0.73193359375,-0.2340087890625,-30.639646530151367,10.742186546325684,-49.682613372802734,4,dennis
1772890021.1992953,-1.193359375,-0.3072509765625,-0.018310546875,-31.249998092651367,17.4560546875,-56.640621185302734,4,dennis
1772890021.2585626,-1.0880126953125,-0.4317626953125,-0.213134765625,-8.23974609375,22.338865280151367,-60.424800872802734,4,dennis
1772890021.2585626,-1.038818359375,-0.4390869140625,-0.1817626953125,-10.986327171325684,14.648436546325684,-67.07763671875,4,dennis
1772890021.2585626,-1.3055419921875,-0.271240234375,-0.01611328125,-12.939452171325684,18.6767578125,-65.61279296875,4,dennis
1772890021.3177624,-1.15771484375,-0.26318359375,-0.1453857421875,23.437498092651367,11.047362327575684,-35.70556640625,4,dennis
1772890021.4409375,-1.1168212890625,-0.2266845703125,-0.07421875,2.44140625,2.746581792831421,-17.39501953125,4,dennis
1772890021.4409375,-1.0433349609375,-0.1781005859375,-0.0433349609375,8.544921875,2.3193359375,-9.82666015625,4,dennis
1772890021.5589764,-1.0565185546875,-0.287109375,-0.0712890625,-0.1831054538488388,3.417968511581421,-7.019042491912842,4,dennis
1772890021.5589764,-1.084228515625,-0.175048828125,-0.1861572265625,16.9677734375,5.126952648162842,-5.310058116912842,4,dennis
1772890021.56216,-1.071533203125,-0.240966796875,-0.1064453125,3.051757574081421,2.563476324081421,0.4272460639476776,4,dennis
1772890021.6796155,-1.0743408203125,-0.160888671875,-0.03515625,8.1787109375,2.13623046875,-0.4272460639476776,4,dennis
1772890021.6796155,-0.969482421875,-0.2174072265625,-0.1273193359375,21.179197311401367,-3.234863042831421,-0.30517578125,4,dennis
1772890021.681833,-0.914794921875,-0.224853515625,-0.0169677734375,-4.21142578125,-4.45556640625,-3.051757574081421,4,dennis
1772890021.6832879,-0.93359375,-0.19189453125,-0.086181640625,8.9111328125,-1.4038084745407104,-3.540038824081421,4,dennis
1772890021.740153,-0.9356689453125,-0.2718505859375,-0.126220703125,-3.112792730331421,-1.5258787870407104,-3.601073980331421,4,dennis
1772890021.921893,-1.010986328125,-0.2149658203125,-0.0518798828125,-9.21630859375,0.6713866591453552,-5.432128429412842,4,dennis
1772890021.921893,-0.9986572265625,-0.205322265625,-0.1024169921875,4.69970703125,1.220703125,-5.493163585662842,4,dennis
1772890021.921893,-0.927001953125,-0.2623291015625,-0.0765380859375,-3.234863042831421,-1.8920897245407104,-6.835937023162842,4,dennis
1772890021.9236875,-0.91796875,-0.175537109375,-0.0120849609375,-1.5869139432907104,0.54931640625,-6.713866710662842,4,dennis
1772890021.9253097,-0.9586181640625,-0.2156982421875,-0.091064453125,0.7934569716453552,1.7089842557907104,-4.82177734375,4,dennis
1772890022.0326767,-0.96337890625,-0.2264404296875,-0.046875,12.695311546325684,2.38037109375,-4.69970703125,4,dennis
1772890022.0326767,-0.8763427734375,-0.2340087890625,-0.08544921875,11.535643577575684,-0.8544921278953552,-1.8310545682907104,4,dennis
1772890022.3422775,-0.77392578125,-0.1802978515625,-0.04345703125,5.737304210662842,-0.8544921278953552,0.1220703050494194,4,dennis
1772890022.3422775,-0.6910400390625,-0.1859130859375,-0.0389404296875,3.295898199081421,0.4882812201976776,4.0283203125,4,dennis
1772890022.3985634,-1.0682373046875,-0.21826171875,-0.1092529296875,-7.812499523162842,7.873534679412842,3.906249761581421,4,dennis
1772890022.5208428,-1.8505859375,-0.1553955078125,-0.294189453125,-22.460935592651367,-0.7934569716453552,6.835937023162842,4,dennis
1772890022.5208428,-1.95068359375,-0.177001953125,-0.162353515625,20.446775436401367,-40.283199310302734,136.71875,4,dennis
1772890022.5208428,-0.7205810546875,-0.5096435546875,-0.13525390625,29.663084030151367,-18.5546875,93.07860565185547,4,dennis
1772890022.5239544,-0.4127197265625,-0.6588134765625,-0.071044921875,-1.15966796875,-3.601073980331421,57.495113372802734,4,dennis
1772890022.6402614,-0.022216796875,-0.3692626953125,-0.01953125,25.451658248901367,7.507323741912842,-29.174802780151367,4,dennis
1772890022.6402614,-0.1070556640625,-0.376220703125,-0.01904296875,21.972654342651367,8.72802734375,-35.94970703125,4,dennis
1772890022.6428587,-0.2266845703125,-0.3421630859375,-0.0452880859375,33.87451171875,19.22607421875,-19.34814453125,4,dennis
1772890022.700897,-0.4281005859375,-0.468994140625,-0.1259765625,-7.263183116912842,12.207030296325684,-5.798339366912842,4,dennis
1772890022.7621868,-0.5758056640625,-0.3988037109375,-0.0718994140625,1.03759765625,11.657713890075684,10.925292015075684,4,dennis
1772890022.7621868,-0.7088623046875,-0.6087646484375,-0.2158203125,-15.869139671325684,6.958007335662842,18.49365234375,4,dennis
1772890022.8209805,-0.8466796875,-0.498779296875,-0.185791015625,-15.686034202575684,10.131834983825684,18.798828125,4,dennis
1772890023.000966,-0.863525390625,-0.6318359375,-0.174072265625,-22.949216842651367,6.347655773162842,17.39501953125,4,dennis
1772890023.000966,-0.79931640625,-0.5289306640625,-0.1903076171875,3.540038824081421,5.249022960662842,11.779784202575684,4,dennis
1772890023.1762173,-0.8575439453125,-0.6119384765625,-0.2574462890625,-4.7607421875,1.0986328125,6.103515148162842,4,dennis
1772890023.1824405,-0.841796875,-0.5654296875,-0.121337890625,16.29638671875,3.173827886581421,0.9765624403953552,4,dennis
1772890023.1828473,-0.9056396484375,-0.623046875,-0.146728515625,13.183592796325684,14.099120140075684,-7.934569835662842,4,dennis
1772890023.183302,-0.651123046875,-0.5406494140625,-0.089599609375,4.69970703125,10.253905296325684,-8.056640625,4,dennis
1772890023.2399118,-0.19775390625,-0.3935546875,-0.0933837890625,-4.8828125,-22.583005905151367,24.841306686401367,4,dennis
1772890023.2399118,-0.3177490234375,-0.4293212890625,-0.0462646484375,-22.216794967651367,-29.235837936401367,35.2783203125,4,dennis
1772890023.2987726,-0.537109375,-0.6527099609375,-0.3558349609375,-12.329100608825684,-24.047849655151367,25.817869186401367,4,dennis
1772890023.421399,-0.678466796875,-0.5770263671875,0.189453125,-32.77587890625,-44.860836029052734,18.61572265625,4,dennis
1772890023.421399,-0.7982177734375,-0.5201416015625,-0.2552490234375,-15.502928733825684,-1.8310545682907104,-4.150390625,4,dennis
1772890023.421399,-0.500244140625,-0.9996337890625,-0.4510498046875,-26.306150436401367,-33.50830078125,-6.652831554412842,4,dennis
1772890023.4772186,-1.0362548828125,-0.2457275390625,0.21630859375,-27.221677780151367,13.977049827575684,-26.184080123901367,4,dennis
1772890023.4772186,-0.3963623046875,-0.934326171875,-0.660400390625,8.544921875,3.051757574081421,-35.58349609375,4,dennis
1772890023.5428631,-0.8953857421875,-0.3585205078125,0.0499267578125,-31.372068405151367,0.0610351525247097,-56.640621185302734,4,dennis
1772890023.5990071,-0.775146484375,-0.6495361328125,-0.1669921875,21.850584030151367,20.385740280151367,-57.922359466552734,4,dennis
1772890023.5990071,-0.88037109375,-0.551513671875,-0.3031005859375,-26.672361373901367,4.8828125,-79.2236328125,4,dennis
1772890023.6611733,-1.2249755859375,-0.506591796875,-0.1759033203125,-13.549803733825684,23.132322311401367,-79.58984375,4,dennis
1772890023.719502,-0.992431640625,-0.5047607421875,-0.2237548828125,18.98193359375,14.038084983825684,-70.98388671875,4,dennis
1772890023.719502,-1.1744384765625,-0.337646484375,-0.0396728515625,18.73779296875,23.803709030151367,-68.84765625,4,dennis
1772890023.7819164,-1.199462890625,-0.388671875,-0.280029296875,18.6767578125,18.98193359375,-59.753414154052734,4,dennis
1772890023.8988147,-1.1202392578125,-0.3126220703125,-0.0423583984375,18.6767578125,15.930174827575684,-49.682613372802734,4,dennis
1772890023.9606185,-1.1256103515625,-0.24658203125,-0.2567138671875,21.179197311401367,19.04296875,-43.212886810302734,4,dennis
1772890023.9606185,-1.1220703125,-0.29736328125,-0.1263427734375,15.014647483825684,4.2724609375,-27.282712936401367,4,dennis
1772890023.9606185,-1.1798095703125,-0.1146240234375,-0.02490234375,-18.6767578125,2.13623046875,-18.9208984375,4,dennis
1772890023.9648879,-1.1234130859375,-0.2581787109375,-0.1717529296875,3.723144292831421,-3.784179449081421,-6.042479991912842,4,dennis
1772890024.1400452,-1.182373046875,-0.2454833984375,-0.1063232421875,-32.04345703125,-0.6103515625,-5.981444835662842,4,dennis
1772890024.1400452,-1.08251953125,-0.1973876953125,-0.1650390625,5.859374523162842,-0.7934569716453552,-5.065917491912842,4,dennis
1772890024.1400452,-0.97119140625,-0.252685546875,-0.117431640625,-15.563963890075684,-3.723144292831421,-2.3193359375,4,dennis
1772890024.1400452,-0.941162109375,-0.1513671875,-0.02978515625,-3.662109136581421,-2.746581792831421,-1.4038084745407104,4,dennis
1772890024.2008164,-0.9912109375,-0.20068359375,-0.1265869140625,-5.187987804412842,0.30517578125,-0.7934569716453552,4,dennis
1772890024.2584093,-0.9781494140625,-0.204833984375,-0.087890625,8.7890625,2.25830078125,0.6713866591453552,4,dennis
1772890024.2584093,-0.9158935546875,-0.24365234375,-0.1080322265625,9.46044921875,0.9765624403953552,-1.03759765625,4,dennis
1772890024.3206346,-0.9857177734375,-0.2469482421875,-0.068603515625,-0.9155272841453552,0.9155272841453552,-4.0283203125,4,dennis
1772890024.3802495,-1.001220703125,-0.20751953125,-0.1221923828125,9.33837890625,3.234863042831421,-3.295898199081421,4,dennis
1772890024.3802495,-0.9625244140625,-0.2432861328125,-0.1046142578125,8.056640625,3.662109136581421,-1.8920897245407104,4,dennis
1772890024.4326243,-0.9066162109375,-0.2308349609375,-0.0643310546875,5.0048828125,1.7700194120407104,-4.0283203125,4,dennis
1772890024.620954,-0.8048095703125,-0.1971435546875,-0.0704345703125,10.620116233825684,1.0986328125,-3.112792730331421,4,dennis
1772890024.620954,-0.71142578125,-0.2257080078125,-0.0859375,2.563476324081421,0.2441406100988388,0.2441406100988388,4,dennis
1772890024.620954,-0.663818359375,-0.169189453125,-0.06005859375,2.807616949081421,3.417968511581421,2.868652105331421,4,dennis
1772890024.796046,-0.796630859375,-0.2213134765625,-0.076171875,8.056640625,8.11767578125,2.624511480331421,4,dennis
1772890024.796046,-2.1502685546875,-0.0875244140625,-0.4560546875,-7.385253429412842,-0.8544921278953552,3.051757574081421,4,dennis
1772890024.8597205,-2.304443359375,-0.0723876953125,-0.2216796875,-15.258788108825684,-32.5927734375,65.12451171875,4,dennis
1772890024.8597205,-2.3553466796875,0.023193359375,-0.1141357421875,14.709471702575684,-46.081539154052734,136.474609375,4,dennis
1772890024.8597205,-1.298583984375,-0.84716796875,-0.3594970703125,13.793944358825684,-36.56005859375,153.50341796875,4,dennis
1772890024.8624058,-0.6953125,-0.397216796875,-0.125732421875,6.652831554412842,-24.047849655151367,115.17333221435547,4,dennis
1772890024.9802508,-0.32275390625,-0.7542724609375,-0.072265625,-3.051757574081421,-1.3427733182907104,76.72119140625,4,dennis
1772890024.9802508,-0.072021484375,-0.491943359375,-0.2147216796875,26.672361373901367,-7.629394054412842,34.11865234375,4,dennis
1772890025.0399141,-0.0677490234375,-0.344482421875,0.1275634765625,-2.685546636581421,-4.57763671875,-9.94873046875,4,dennis
1772890025.0399141,0.02685546875,-0.4443359375,0.049072265625,11.230467796325684,12.939452171325684,-27.954099655151367,4,dennis
1772890025.1599202,-0.007568359375,-0.3099365234375,-0.1280517578125,17.578125,13.793944358825684,-33.87451171875,4,dennis
1772890025.1599202,-0.1405029296875,-0.3763427734375,0.0050048828125,-7.080077648162842,20.874021530151367,-21.301267623901367,4,dennis
1772890025.1628394,-0.3270263671875,-0.38330078125,-0.034912109375,-6.774901866912842,23.742673873901367,-5.737304210662842,4,dennis
1772890025.2808378,-0.65283203125,-0.505615234375,-0.231689453125,-11.352538108825684,15.686034202575684,2.44140625,4,dennis
1772890025.3971956,-0.597412109375,-0.4517822265625,-0.0303955078125,-26.855466842651367,10.559081077575684,4.94384765625,4,dennis
1772890025.3971956,-0.7197265625,-0.59375,-0.2252197265625,1.2817381620407104,4.5166015625,6.652831554412842,4,dennis
1772890025.3971956,-0.7861328125,-0.626953125,-0.0972900390625,-26.428220748901367,-0.6103515625,7.568358898162842,4,dennis
1772890025.403252,-0.81396484375,-0.6221923828125,-0.2171630859375,4.57763671875,0.54931640625,6.225585460662842,4,dennis
1772890025.4616768,-0.9271240234375,-0.6416015625,-0.1383056640625,8.36181640625,5.126952648162842,-5.737304210662842,4,dennis
1772890025.4616768,-0.8006591796875,-0.676513671875,-0.1507568359375,4.638671875,4.08935546875,-8.72802734375,4,dennis
1772890025.519317,-0.7313232421875,-0.5806884765625,-0.082763671875,5.920409679412842,5.737304210662842,-4.45556640625,4,dennis
1772890025.5810013,-0.748779296875,-0.619873046875,-0.16796875,-0.54931640625,8.60595703125,1.9531248807907104,4,dennis
1772890025.5810013,-0.7000732421875,-0.554443359375,-0.140625,-11.047362327575684,10.803221702575684,2.13623046875,4,dennis
1772890025.6994672,-0.5576171875,-0.4891357421875,0.015625,-7.324218273162842,0.54931640625,1.220703125,4,dennis
1772890025.6994672,-0.40966796875,-0.5037841796875,-0.01611328125,0.3662109076976776,-8.056640625,0.7324218153953552,4,dennis
1772890025.8820267,-0.2962646484375,-0.359619140625,-0.119140625,-9.46044921875,-27.343748092651367,9.765625,4,dennis
1772890025.8820267,-0.250732421875,-0.451171875,0.1051025390625,-5.126952648162842,-29.296873092651367,25.085447311401367,4,dennis
1772890025.8820267,-0.333984375,-0.3623046875,-0.2269287109375,20.141599655151367,-29.541013717651367,22.521970748901367,4,dennis
1772890025.8820267,-0.4505615234375,-0.6234130859375,-0.133056640625,-27.832029342651367,-33.75244140625,6.225585460662842,4,dennis
1772890025.9407053,-0.8017578125,-0.7991943359375,-0.1951904296875,-49.255367279052734,-0.7324218153953552,-28.747556686401367,4,dennis
1772890026.1212993,-0.459228515625,-0.60595703125,-0.5679931640625,49.560543060302734,-12.512206077575684,-29.663084030151367,4,dennis
1772890026.1212993,-1.10400390625,-0.782470703125,0.1168212890625,-45.104976654052734,20.263669967651367,-57.983394622802734,4,dennis
1772890026.1212993,-0.704345703125,-0.4254150390625,-0.723388671875,58.898921966552734,9.09423828125,-50.781246185302734,4,dennis
1772890026.1212993,-1.2420654296875,-0.6162109375,0.171630859375,-14.404295921325684,26.367185592651367,-64.5751953125,4,dennis
1772890026.1799555,-0.976806640625,-0.718994140625,-0.4296875,32.40966796875,20.874021530151367,-72.20458984375,4,dennis
1772890026.1799555,-1.251953125,-0.2557373046875,0.137451171875,-0.4882812201976776,35.400390625,-83.92333221435547,4,dennis
1772890026.2407527,-1.23828125,-0.4266357421875,-0.2227783203125,26.550291061401367,34.7900390625,-72.1435546875,4,dennis
1772890026.3009155,-1.105712890625,-0.4132080078125,-0.1376953125,-8.6669921875,15.930174827575684,-61.645503997802734,4,dennis
1772890026.3009155,-1.1602783203125,-0.218017578125,-0.0908203125,-12.023924827575684,16.6015625,-43.212886810302734,4,dennis
1772890026.3613138,-1.2227783203125,-0.3270263671875,-0.182861328125,-4.0283203125,3.112792730331421,-20.141599655151367,4,dennis
1772890026.415868,-1.1961669921875,-0.1044921875,-0.0682373046875,-22.888181686401367,-0.54931640625,-12.939452171325684,4,dennis
1772890026.415868,-1.19482421875,-0.0968017578125,-0.08203125,-5.737304210662842,0.9155272841453552,-5.920409679412842,4,dennis
1772890026.4813964,-1.1005859375,-0.27294921875,-0.169677734375,3.112792730331421,-0.30517578125,-3.479003667831421,4,dennis
1772890026.541659,-1.056396484375,-0.196533203125,-0.06982421875,2.0751953125,-0.7324218153953552,-2.746581792831421,4,dennis
1772890026.541659,-1.00439453125,-0.1788330078125,-0.1195068359375,26.733396530151367,1.6479490995407104,7.202147960662842,4,dennis
1772890026.7208304,-0.9656982421875,-0.2564697265625,-0.0828857421875,11.779784202575684,1.03759765625,7.690429210662842,4,dennis
1772890026.9010108,-0.95263671875,-0.212890625,-0.0279541015625,12.878417015075684,1.5258787870407104,6.530761241912842,4,dennis
1772890026.9010108,-0.917236328125,-0.2293701171875,-0.1279296875,10.803221702575684,0.1220703050494194,7.629394054412842,4,dennis
1772890026.9010108,-0.9510498046875,-0.2364501953125,-0.07568359375,-7.873534679412842,-0.0610351525247097,7.141112804412842,4,dennis
1772890026.9606876,-1.01220703125,-0.2119140625,-0.0640869140625,5.554198741912842,4.33349609375,4.7607421875,4,dennis
1772890026.9606876,-0.97412109375,-0.2318115234375,-0.1085205078125,-4.7607421875,1.6479490995407104,-2.563476324081421,4,dennis
1772890026.9606876,-0.9344482421875,-0.2197265625,-0.1104736328125,12.023924827575684,3.845214605331421,-5.554198741912842,4,dennis
1772890027.08042,-0.822998046875,-0.2454833984375,-0.0914306640625,0.6103515625,1.03759765625,-7.446288585662842,4,dennis
1772890027.08042,-0.751220703125,-0.1724853515625,-0.029541015625,0.6103515625,1.8310545682907104,-5.981444835662842,4,dennis
1772890027.08042,-0.67138671875,-0.237548828125,-0.1002197265625,3.479003667831421,2.44140625,-4.69970703125,4,dennis
1772890027.38237,-0.8021240234375,-0.2293701171875,-0.0491943359375,-5.065917491912842,3.173827886581421,-5.432128429412842,4,dennis
1772890027.38237,-1.49072265625,-0.1904296875,-0.14501953125,-5.676269054412842,10.070799827575684,-12.634276390075684,4,dennis
1772890027.38237,-2.02880859375,-0.14990234375,-0.35498046875,-13.427733421325684,-5.676269054412842,-0.9765624403953552,4,dennis
1772890027.3841946,-2.25146484375,-0.0057373046875,-0.167236328125,-23.132322311401367,-33.447265625,58.105464935302734,4,dennis
1772890027.5555763,-1.21142578125,-0.78125,-0.257568359375,-13.610838890075684,-55.236812591552734,138.0615234375,4,dennis
1772890027.5555763,-0.3427734375,-0.804931640625,-0.211181640625,1.6479490995407104,-10.253905296325684,71.83837890625,4,dennis
1772890027.5555763,-0.2447509765625,-0.4703369140625,-0.1512451171875,-4.69970703125,-8.9111328125,31.372068405151367,4,dennis
1772890027.6208856,-0.258544921875,-0.3453369140625,-0.0296630859375,18.98193359375,5.249022960662842,-21.179197311401367,4,dennis
1772890027.6208856,-0.2174072265625,-0.4495849609375,-0.227294921875,19.47021484375,23.498533248901367,-35.5224609375,4,dennis
1772890027.7423942,-0.21044921875,-0.32861328125,0.0517578125,3.540038824081421,26.367185592651367,-34.7900390625,4,dennis
1772890027.7423942,-0.2587890625,-0.3145751953125,-0.0108642578125,-8.6669921875,29.724119186401367,-27.343748092651367,4,dennis
1772890027.7430506,-0.3961181640625,-0.5035400390625,-0.1485595703125,-16.29638671875,12.878417015075684,-7.812499523162842,4,dennis
1772890027.8002574,-0.6490478515625,-0.446533203125,-0.077392578125,-19.775390625,14.160155296325684,0.7934569716453552,4,dennis
1772890027.8610182,-0.7655029296875,-0.5684814453125,-0.257568359375,-3.417968511581421,3.479003667831421,1.2817381620407104,4,dennis
1772890027.8610182,-0.836669921875,-0.594482421875,-0.1832275390625,-23.071287155151367,-4.638671875,0.1831054538488388,4,dennis
1772890027.9811444,-0.8658447265625,-0.56787109375,-0.1475830078125,3.234863042831421,4.45556640625,1.5869139432907104,4,dennis
1772890028.1008587,-0.81591796875,-0.643798828125,-0.2568359375,-7.385253429412842,-6.042479991912842,2.868652105331421,4,dennis
1772890028.2817664,-0.8155517578125,-0.566650390625,-0.08447265625,15.014647483825684,-1.5258787870407104,7.202147960662842,4,dennis
1772890028.2817664,-0.84814453125,-0.578857421875,-0.2103271484375,-5.0048828125,3.051757574081421,7.141112804412842,4,dennis
1772890028.2817664,-0.87841796875,-0.6351318359375,-0.1898193359375,10.314940452575684,7.812499523162842,7.751464366912842,4,dennis
1772890028.2832406,-0.8662109375,-0.5445556640625,-0.1337890625,11.596678733825684,14.953612327575684,-2.990722417831421,4,dennis
1772890028.3349206,-0.3709716796875,-0.3885498046875,0.0010986328125,4.39453125,-17.4560546875,13.122557640075684,4,dennis
1772890028.4020357,-0.43896484375,-0.45068359375,-0.1376953125,-2.0751953125,-27.893064498901367,19.6533203125,4,dennis
1772890028.4020357,-0.2982177734375,-0.513427734375,-0.146484375,8.48388671875,-41.381832122802734,24.963376998901367,4,dennis
1772890028.4603288,-0.705810546875,-0.560302734375,0.06884765625,1.7700194120407104,-19.95849609375,12.573241233825684,4,dennis
1772890028.4603288,-0.449951171875,-0.60107421875,-0.6202392578125,29.052732467651367,-29.296873092651367,-0.4882812201976776,4,dennis
1772890028.5209796,-1.006591796875,-0.8157958984375,-0.0126953125,-41.992183685302734,8.30078125,-16.54052734375,4,dennis
1772890028.7019076,-0.5650634765625,-0.555419921875,-0.6075439453125,34.72900390625,-5.126952648162842,-7.873534679412842,4,dennis
1772890028.7019076,-1.1793212890625,-0.7113037109375,0.012939453125,-53.894039154052734,28.015134811401367,-33.203125,4,dennis
1772890028.7019076,-0.713134765625,-0.6829833984375,-0.581787109375,34.72900390625,14.831542015075684,-29.602048873901367,4,dennis
1772890028.7040734,-0.8414306640625,-0.39404296875,0.11083984375,-40.832515716552734,6.958007335662842,-37.78076171875,4,dennis
1772890028.7599628,-0.641357421875,-0.4464111328125,-0.4542236328125,34.97314453125,13.061522483825684,-40.283199310302734,4,dennis
1772890028.7599628,-0.8243408203125,-0.712646484375,0.1485595703125,-33.447265625,25.634763717651367,-40.283199310302734,4,dennis
1772890028.8803396,-0.9217529296875,-0.3463134765625,-0.243896484375,31.188962936401367,43.151851654052734,-50.537105560302734,4,dennis
1772890028.8803396,-0.90380859375,-0.4468994140625,-0.17724609375,15.502928733825684,42.785640716552734,-79.833984375,4,dennis
1772890028.8850172,-1.335205078125,-0.50341796875,-0.20263671875,10.498045921325684,52.612300872802734,-103.51561737060547,4,dennis
1772890028.9988642,-1.1392822265625,-0.4254150390625,-0.242919921875,43.701168060302734,17.822265625,-79.4677734375,4,dennis
1772890029.053452,-1.3251953125,-0.18896484375,0.0379638671875,20.629880905151367,19.775390625,-58.044429779052734,4,dennis
1772890029.061947,-1.295654296875,-0.191650390625,-0.1605224609375,27.832029342651367,2.990722417831421,-23.315427780151367,4,dennis
1772890029.061947,-1.289306640625,-0.1424560546875,-0.0198974609375,-16.05224609375,-5.981444835662842,-5.0048828125,4,dennis
1772890029.1207745,-1.155029296875,-0.1378173828125,-0.137451171875,-1.8310545682907104,-7.202147960662842,7.873534679412842,4,dennis
1772890029.242023,-1.0386962890625,-0.2569580078125,-0.108154296875,-12.756346702575684,-9.27734375,7.873534679412842,4,dennis
1772890029.242023,-0.9945068359375,-0.2003173828125,-0.113525390625,-10.498045921325684,-10.559081077575684,4.82177734375,4,dennis
1772890029.2993646,-0.95849609375,-0.1964111328125,-0.0997314453125,-15.991209983825684,-11.108397483825684,4.2724609375,4,dennis
1772890029.2993646,-0.962158203125,-0.2552490234375,-0.05126953125,-9.70458984375,-5.615233898162842,-2.3193359375,4,dennis
1772890029.3022308,-0.97509765625,-0.2457275390625,-0.1343994140625,-2.01416015625,-5.310058116912842,-4.33349609375,4,dennis
1772890029.3623784,-0.955810546875,-0.229736328125,-0.083984375,-8.11767578125,-5.249022960662842,-4.69970703125,4,dennis
1772890029.4147425,-0.92578125,-0.177001953125,-0.06201171875,0.2441406100988388,-3.234863042831421,-4.2724609375,4,dennis
1772890029.540378,-0.897705078125,-0.2327880859375,-0.077880859375,-2.25830078125,-2.807616949081421,-3.967284917831421,4,dennis
1772890029.540378,-0.951171875,-0.231689453125,-0.078369140625,-8.48388671875,-1.7700194120407104,-4.8828125,4,dennis
1772890029.6601312,-1.01513671875,-0.21923828125,-0.10205078125,1.3427733182907104,0.6103515625,-6.042479991912842,4,dennis
1772890029.6601312,-0.992919921875,-0.2642822265625,-0.123046875,-0.9765624403953552,0.4272460639476776,-7.568358898162842,4,dennis
1772890029.6601312,-0.9849853515625,-0.235107421875,-0.0455322265625,-7.019042491912842,0.9155272841453552,-10.070799827575684,4,dennis
1772890029.7774796,-0.9212646484375,-0.1990966796875,-0.1031494140625,5.615233898162842,0.7934569716453552,-6.896972179412842,4,dennis
1772890029.9604383,-0.8062744140625,-0.15380859375,-0.0494384765625,0.9765624403953552,2.0751953125,0.0610351525247097,4,dennis
1772890029.9604383,-0.763916015625,-0.235595703125,-0.1019287109375,-1.9531248807907104,3.784179449081421,0.7934569716453552,4,dennis
1772890030.021951,-0.8330078125,-0.2015380859375,-0.0760498046875,-11.840819358825684,3.662109136581421,0.54931640625,4,dennis
1772890030.021951,-1.19873046875,-0.157470703125,-0.0390625,-14.892577171325684,10.314940452575684,-7.507323741912842,4,dennis
1772890030.021951,-2.116943359375,-0.241455078125,-0.1845703125,2.807616949081421,-42.419429779052734,148.86474609375,4,dennis
1772890030.021951,-1.2305908203125,-0.8480224609375,-0.317626953125,0.9765624403953552,-34.24072265625,143.24951171875,4,dennis
1772890030.1400476,-0.741943359375,-0.4381103515625,-0.098876953125,-3.173827886581421,-12.023924827575684,112.97606658935547,4,dennis
1772890030.1400476,-0.4058837890625,-0.6614990234375,-0.114501953125,-1.0986328125,5.981444835662842,81.48192596435547,4,dennis
1772890030.1400476,-0.2398681640625,-0.519287109375,-0.208740234375,3.479003667831421,4.39453125,49.255367279052734,4,dennis
1772890030.1983774,-0.2178955078125,-0.4417724609375,-0.04638671875,5.187987804412842,3.723144292831421,17.08984375,4,dennis
1772890030.1983774,-0.0670166015625,-0.408935546875,0.062744140625,15.869139671325684,15.991209983825684,-6.530761241912842,4,dennis
1772890030.3210895,-0.0699462890625,-0.3682861328125,-0.1431884765625,44.982906341552734,26.184080123901367,-19.775390625,4,dennis
1772890030.380068,-0.1279296875,-0.3148193359375,-0.0543212890625,26.916501998901367,26.916501998901367,-23.925779342651367,4,dennis
1772890030.4980054,-0.1505126953125,-0.2252197265625,0.09765625,-3.234863042831421,31.799314498901367,-13.549803733825684,4,dennis
1772890030.4980054,-0.4073486328125,-0.4713134765625,-0.1998291015625,44.738765716552734,30.334470748901367,7.751464366912842,4,dennis
1772890030.4980054,-0.5487060546875,-0.4405517578125,0.007568359375,-24.414060592651367,20.507810592651367,11.901854515075684,4,dennis
1772890030.503772,-0.7191162109375,-0.5467529296875,-0.131591796875,14.099120140075684,13.366698265075684,16.11328125,4,dennis
1772890030.5603333,-0.8463134765625,-0.6224365234375,-0.2244873046875,1.7089842557907104,7.202147960662842,0.7934569716453552,4,dennis
1772890030.5603333,-0.78857421875,-0.718505859375,-0.1292724609375,-4.2724609375,2.38037109375,-2.746581792831421,4,dennis
1772890030.6766708,-0.85009765625,-0.6231689453125,-0.091064453125,8.30078125,7.507323741912842,-1.5258787870407104,4,dennis
1772890030.6766708,-0.8009033203125,-0.726806640625,-0.162841796875,3.173827886581421,6.408690929412842,-1.4038084745407104,4,dennis
1772890030.6766708,-0.794189453125,-0.6451416015625,-0.132080078125,2.38037109375,14.099120140075684,1.3427733182907104,4,dennis
1772890030.7335742,-0.5498046875,-0.5606689453125,0.0430908203125,-4.8828125,10.925292015075684,-1.6479490995407104,4,dennis
1772890030.7964237,-0.2464599609375,-0.447509765625,0.0628662109375,-9.82666015625,-2.38037109375,3.479003667831421,4,dennis
1772890030.7964237,-0.082275390625,-0.3916015625,-0.0087890625,-10.742186546325684,-22.827146530151367,20.263669967651367,4,dennis
1772890030.9200473,-0.076171875,-0.2724609375,-0.0400390625,-7.507323741912842,-33.50830078125,31.311033248901367,4,dennis
1772890030.9200473,-0.311767578125,-0.516845703125,0.16162109375,-18.1884765625,-35.58349609375,23.559568405151367,4,dennis
1772890030.9200473,-0.2584228515625,-0.449462890625,-0.3896484375,39.794921875,-34.1796875,9.1552734375,4,dennis
1772890030.9746256,-0.628173828125,-0.8748779296875,-0.2061767578125,-17.9443359375,-25.512693405151367,-21.240232467651367,4,dennis
1772890031.221306,-0.7711181640625,-0.4676513671875,-0.09228515625,44.311519622802734,-18.798828125,-38.0859375,4,dennis
1772890031.2223437,-0.7867431640625,-0.7979736328125,-0.512939453125,-18.6767578125,-0.3662109076976776,-53.222652435302734,4,dennis
1772890031.401279,-0.8397216796875,-0.6348876953125,-0.1080322265625,12.695311546325684,-4.8828125,-65.185546875,4,dennis
1772890031.401279,-1.1031494140625,-0.4901123046875,-0.336669921875,11.901854515075684,31.616209030151367,-71.10595703125,4,dennis
1772890031.401279,-1.0609130859375,-0.49853515625,-0.38818359375,21.362302780151367,31.188962936401367,-65.36865234375,4,dennis
1772890031.4048622,-1.1431884765625,-0.662109375,-0.1973876953125,-7.263183116912842,17.39501953125,-62.744136810302734,4,dennis
1772890031.4601188,-0.959716796875,-0.253173828125,-0.01611328125,-4.150390625,18.12744140625,-37.17041015625,4,dennis
1772890031.4601188,-1.0594482421875,-0.434814453125,-0.130859375,-3.479003667831421,17.15087890625,-35.82763671875,4,dennis
1772890031.5761695,-1.267333984375,-0.185791015625,-0.150146484375,-2.807616949081421,13.427733421325684,-35.58349609375,4,dennis
1772890031.5761695,-1.291748046875,-0.271240234375,-0.10693359375,-1.7089842557907104,2.929687261581421,-19.47021484375,4,dennis
1772890031.583526,-1.2113037109375,-0.1107177734375,-0.07568359375,-17.333984375,-0.3662109076976776,-11.291502952575684,4,dennis
1772890031.6990135,-1.0487060546875,-0.1707763671875,-0.0943603515625,-6.469726085662842,-6.469726085662842,-2.38037109375,4,dennis
1772890031.760063,-0.9825439453125,-0.2384033203125,-0.0599365234375,-19.59228515625,-6.530761241912842,1.5258787870407104,4,dennis
1772890031.760063,-0.997314453125,-0.121826171875,-0.0943603515625,-2.746581792831421,-4.45556640625,7.202147960662842,4,dennis
1772890031.760063,-0.9649658203125,-0.2855224609375,-0.1103515625,-3.784179449081421,-3.906249761581421,5.065917491912842,4,dennis
1772890031.8215146,-0.974365234375,-0.27490234375,-0.0595703125,-12.512206077575684,-3.112792730331421,1.6479490995407104,4,dennis
1772890031.879175,-0.9144287109375,-0.239013671875,-0.1102294921875,7.507323741912842,-0.3662109076976776,-0.9765624403953552,4,dennis
1772890031.9383256,-0.943603515625,-0.2581787109375,-0.085693359375,-5.0048828125,-0.6103515625,0.4272460639476776,4,dennis
1772890031.9983017,-0.9749755859375,-0.2193603515625,-0.052978515625,-5.065917491912842,-0.30517578125,-0.0610351525247097,4,dennis
1772890031.9983017,-0.93798828125,-0.2117919921875,-0.1365966796875,-1.4648436307907104,0.4882812201976776,-1.220703125,4,dennis
1772890031.9983017,-0.9039306640625,-0.2454833984375,-0.08984375,-9.6435546875,-1.7700194120407104,-1.03759765625,4,dennis
1772890032.056316,-0.9459228515625,-0.188720703125,-0.1065673828125,-3.417968511581421,1.8310545682907104,-1.8310545682907104,4,dennis
1772890032.180936,-0.9869384765625,-0.2691650390625,-0.1322021484375,-3.845214605331421,0.8544921278953552,-2.563476324081421,4,dennis
1772890032.3020606,-1.0311279296875,-0.1995849609375,-0.0728759765625,-7.080077648162842,1.2817381620407104,-3.417968511581421,4,dennis
1772890032.3020606,-0.9942626953125,-0.2188720703125,-0.1275634765625,6.408690929412842,1.6479490995407104,-5.187987804412842,4,dennis
1772890032.3032908,-0.9449462890625,-0.22314453125,-0.104248046875,-0.4272460639476776,-1.5869139432907104,-4.0283203125,4,dennis
1772890032.3600307,-0.8814697265625,-0.168701171875,-0.0760498046875,5.676269054412842,-1.15966796875,-2.3193359375,4,dennis
1772890032.3600307,-0.6956787109375,-0.1650390625,-0.0438232421875,-0.3662109076976776,2.01416015625,-0.8544921278953552,4,dennis
1772890032.3600307,-1.072998046875,-0.254638671875,-0.0618896484375,-10.375975608825684,5.615233898162842,-5.0048828125,4,dennis
1772890032.4200356,-1.75634765625,-0.2530517578125,-0.2567138671875,-31.860349655151367,4.150390625,-7.629394054412842,4,dennis
1772890032.480373,-2.01708984375,-0.0438232421875,-0.2197265625,-29.235837936401367,-14.709471702575684,22.399900436401367,4,dennis
1772890032.480373,-2.08984375,-0.227294921875,-0.0643310546875,-23.376462936401367,-39.48974609375,86.79198455810547,4,dennis
1772890032.5404184,-1.9486083984375,-0.1201171875,-0.23486328125,-11.352538108825684,-45.654293060302734,128.35693359375,4,dennis
1772890032.9000955,-1.5997314453125,-0.6947021484375,-0.366455078125,-0.2441406100988388,-46.630855560302734,148.25439453125,4,dennis
1772890032.9000955,-1.14208984375,-0.52685546875,-0.216796875,-0.6103515625,-38.63525390625,138.36669921875,4,dennis
1772890032.9000955,-0.808349609375,-0.63232421875,-0.1455078125,10.559081077575684,-15.014647483825684,115.84471893310547,4,dennis
1772890032.9607172,-0.49609375,-0.59326171875,-0.27001953125,-8.60595703125,-4.82177734375,88.37889862060547,4,dennis
1772890032.9607172,-0.2174072265625,-0.34326171875,-0.0853271484375,21.545408248901367,12.512206077575684,6.164550304412842,4,dennis
1772890032.9607172,-0.240966796875,-0.3555908203125,0.0115966796875,8.72802734375,13.977049827575684,-10.864256858825684,4,dennis
1772890033.0194204,-0.46630859375,-0.553466796875,-0.1239013671875,14.648436546325684,7.385253429412842,-4.5166015625,4,dennis
1772890033.0194204,-0.6473388671875,-0.489013671875,-0.1689453125,-9.70458984375,5.126952648162842,-6.530761241912842,4,dennis
1772890033.1403964,-0.827392578125,-0.7733154296875,-0.22021484375,1.03759765625,-0.2441406100988388,-2.197265625,4,dennis
1772890033.1403964,-0.81884765625,-0.612548828125,-0.1348876953125,-9.82666015625,-2.38037109375,-2.746581792831421,4,dennis
1772890033.1434827,-0.821044921875,-0.6641845703125,-0.203857421875,1.0986328125,9.033203125,-2.0751953125,4,dennis
1772890033.1942093,-0.7685546875,-0.722412109375,-0.13330078125,-14.221190452575684,6.164550304412842,2.990722417831421,4,dennis
1772890033.32122,-0.7001953125,-0.5831298828125,-0.2301025390625,-0.6713866591453552,14.770506858825684,6.042479991912842,4,dennis
1772890033.32122,-0.7479248046875,-0.6627197265625,-0.146728515625,-20.751951217651367,7.019042491912842,4.8828125,4,dennis
1772890033.32122,-0.7440185546875,-0.6009521484375,-0.092041015625,2.868652105331421,7.873534679412842,2.746581792831421,4,dennis
1772890033.4377291,-0.7950439453125,-0.69091796875,-0.1588134765625,-4.0283203125,4.69970703125,-1.5258787870407104,4,dennis
1772890033.562,-0.7564697265625,-0.625244140625,-0.1231689453125,2.807616949081421,2.197265625,-4.08935546875,4,dennis
1772890033.562,-0.6241455078125,-0.5572509765625,-0.08447265625,-3.906249761581421,-0.6103515625,-8.23974609375,4,dennis
1772890033.5630584,-0.5408935546875,-0.5155029296875,-0.068603515625,-3.295898199081421,-3.295898199081421,-14.648436546325684,4,dennis
1772890033.5630584,-0.46826171875,-0.4764404296875,-0.083740234375,-3.417968511581421,-8.4228515625,-13.366698265075684,4,dennis
1772890033.6802871,-0.446044921875,-0.5086669921875,-0.069091796875,7.080077648162842,-23.437498092651367,-4.7607421875,4,dennis
1772890033.739881,-0.47509765625,-0.545166015625,-0.0252685546875,-14.648436546325684,-25.024412155151367,-5.798339366912842,4,dennis
1772890033.739881,-0.5555419921875,-0.46923828125,-0.160888671875,18.73779296875,-26.000974655151367,-8.36181640625,4,dennis
1772890033.739881,-0.5673828125,-0.6944580078125,-0.061279296875,-32.5927734375,-28.686521530151367,-8.60595703125,4,dennis
1772890033.7436626,-0.87939453125,-0.5087890625,-0.207275390625,0.30517578125,-3.662109136581421,-15.075682640075684,4,dennis
1772890033.8008778,-0.5867919921875,-0.893798828125,-0.3421630859375,-29.968259811401367,-22.521970748901367,-15.686034202575684,4,dennis
1772890033.8593345,-1.025390625,-0.3458251953125,0.0618896484375,-10.437010765075684,7.751464366912842,-26.794431686401367,4,dennis
1772890033.8593345,-0.5018310546875,-0.841064453125,-0.5689697265625,-8.48388671875,-2.807616949081421,-27.832029342651367,4,dennis
1772890033.923451,-1.1171875,-0.395751953125,0.081787109375,-35.21728515625,12.878417015075684,-51.818843841552734,4,dennis
1772890033.923451,-0.6650390625,-0.5108642578125,-0.33935546875,22.705076217651367,29.174802780151367,-57.678218841552734,4,dennis
1772890033.9802632,-0.772705078125,-0.6043701171875,-0.198974609375,-29.785154342651367,18.49365234375,-65.0634765625,4,dennis
1772890034.040392,-0.890869140625,-0.26171875,-0.101806640625,-4.8828125,25.573728561401367,-65.36865234375,4,dennis
1772890034.042399,-0.654296875,-0.4949951171875,-0.1514892578125,10.314940452575684,23.071287155151367,-62.011714935302734,4,dennis
1772890034.1026127,-1.1268310546875,-0.3187255859375,-0.068115234375,9.94873046875,26.550291061401367,-75.5615234375,4,dennis
1772890034.1613781,-1.224609375,-0.531494140625,-0.2962646484375,25.451658248901367,20.141599655151367,-74.76806640625,4,dennis
1772890034.1613781,-1.1494140625,-0.2545166015625,-0.006591796875,13.000487327575684,14.831542015075684,-78.43017578125,4,dennis
1772890034.2804086,-1.4364013671875,-0.3599853515625,-0.1097412109375,10.437010765075684,23.498533248901367,-73.42529296875,4,dennis
1772890034.2804086,-1.2188720703125,-0.2359619140625,-0.192138671875,5.737304210662842,8.72802734375,-48.828121185302734,4,dennis
1772890034.283922,-1.1439208984375,-0.057861328125,0.0640869140625,-21.545408248901367,0.2441406100988388,-30.944822311401367,4,dennis
1772890034.3343155,-1.2225341796875,-0.1162109375,-0.103271484375,0.3662109076976776,2.990722417831421,-11.779784202575684,4,dennis
1772890034.4014373,-1.1475830078125,-0.231689453125,-0.1904296875,-23.986814498901367,-5.310058116912842,-1.220703125,4,dennis
1772890034.402448,-1.20458984375,-0.025390625,-0.0712890625,-27.343748092651367,-3.295898199081421,4.2724609375,4,dennis
1772890034.4578876,-1.0765380859375,-0.193603515625,-0.07421875,-0.3662109076976776,-6.713866710662842,8.23974609375,4,dennis
1772890034.5227187,-0.992431640625,-0.1431884765625,-0.0601806640625,-15.380858421325684,-8.97216796875,9.09423828125,4,dennis
1772890034.6406138,-0.961669921875,-0.0897216796875,-0.06005859375,5.493163585662842,-5.065917491912842,8.85009765625,4,dennis
1772890034.6988158,-0.944580078125,-0.2838134765625,-0.12158203125,1.7700194120407104,-4.33349609375,6.835937023162842,4,dennis
1772890034.7015648,-0.9915771484375,-0.1136474609375,-0.0836181640625,0.8544921278953552,-3.295898199081421,4.08935546875,4,dennis
1772890034.7027493,-0.9486083984375,-0.212158203125,-0.098876953125,7.141112804412842,-2.624511480331421,3.112792730331421,4,dennis
1772890034.7598515,-0.9471435546875,-0.1739501953125,-0.02197265625,-8.48388671875,-2.3193359375,0.9765624403953552,4,dennis
1772890034.761984,-0.977783203125,-0.151123046875,-0.103759765625,1.0986328125,-1.15966796875,1.03759765625,4,dennis
1772890034.9397275,-0.983642578125,-0.215087890625,-0.1229248046875,-1.5258787870407104,-2.13623046875,2.44140625,4,dennis
1772890034.9397275,-0.9803466796875,-0.180419921875,-0.0723876953125,-6.774901866912842,-0.8544921278953552,-1.220703125,4,dennis
1772890034.9397275,-0.98779296875,-0.15380859375,-0.0880126953125,8.4228515625,0.7934569716453552,-3.784179449081421,4,dennis
1772890034.943774,-0.9420166015625,-0.2012939453125,-0.0814208984375,-2.990722417831421,-0.7934569716453552,-3.845214605331421,4,dennis
1772890034.9950337,-0.916259765625,-0.1346435546875,-0.0982666015625,7.751464366912842,0.9765624403953552,-3.417968511581421,4,dennis
1772890034.9950337,-0.918212890625,-0.2303466796875,-0.1070556640625,2.50244140625,0.7324218153953552,-5.920409679412842,4,dennis
1772890035.1209881,-0.88037109375,-0.1412353515625,-0.0556640625,7.629394054412842,1.5258787870407104,-7.507323741912842,4,dennis
1772890035.240218,-0.815185546875,-0.15625,-0.0780029296875,9.58251953125,1.6479490995407104,-5.798339366912842,4,dennis
1772890035.240218,-0.7381591796875,-0.1583251953125,-0.052001953125,-0.4882812201976776,-0.4882812201976776,-1.220703125,4,dennis
1772890035.240218,-0.784423828125,-0.1494140625,-0.0606689453125,2.01416015625,0.8544921278953552,0.6103515625,4,dennis
1772890035.240218,-1.302490234375,-0.2510986328125,-0.1231689453125,-17.7001953125,5.615233898162842,-4.7607421875,4,dennis
1772890035.297752,-2.3468017578125,0.0540771484375,-0.1903076171875,0.54931640625,-23.010251998901367,49.621578216552734,4,dennis
1772890035.3601408,-2.29443359375,0.041748046875,-0.1953125,-1.7700194120407104,-49.621578216552734,121.94823455810547,4,dennis
1772890035.4187584,-1.9136962890625,-0.2513427734375,-0.143798828125,43.151851654052734,-43.090816497802734,146.42333984375,4,dennis
1772890035.4187584,-1.3348388671875,-0.7408447265625,-0.47607421875,14.709471702575684,-36.19384765625,135.25390625,4,dennis
1772890035.598472,-0.9986572265625,-0.6185302734375,-0.233642578125,9.033203125,-25.329587936401367,116.69921112060547,4,dennis
1772890035.598472,-0.6339111328125,-0.4530029296875,-0.044677734375,16.90673828125,-3.295898199081421,90.75926971435547,4,dennis
1772890035.598472,-0.2960205078125,-0.664794921875,-0.1810302734375,-12.207030296325684,1.8310545682907104,64.39208984375,4,dennis
1772890035.6066163,-0.1898193359375,-0.3829345703125,-0.097412109375,22.216794967651367,5.371093273162842,26.367185592651367,4,dennis
1772890035.7212584,-0.11181640625,-0.423583984375,-0.1671142578125,18.06640625,20.324705123901367,-5.187987804412842,4,dennis
1772890035.7212584,-0.149169921875,-0.3255615234375,-0.0806884765625,24.475095748901367,24.353025436401367,-14.587401390075684,4,dennis
1772890035.7212584,-0.17041015625,-0.303466796875,0.0465087890625,13.305663108825684,30.700681686401367,-16.90673828125,4,dennis
1772890035.781319,-0.2542724609375,-0.2874755859375,-0.042724609375,-5.187987804412842,25.756834030151367,-6.164550304412842,4,dennis
1772890035.8400671,-0.3946533203125,-0.3583984375,-0.0582275390625,-1.8920897245407104,14.648436546325684,-1.2817381620407104,4,dennis
1772890035.8400671,-0.603759765625,-0.4276123046875,-0.046630859375,-0.8544921278953552,5.920409679412842,-0.1831054538488388,4,dennis
1772890035.899661,-0.7945556640625,-0.5650634765625,-0.1988525390625,-3.845214605331421,-2.563476324081421,-7.446288585662842,4,dennis
1772890036.0820858,-0.821044921875,-0.5848388671875,-0.177490234375,-2.3193359375,-2.3193359375,-3.723144292831421,4,dennis
1772890036.1411433,-0.844482421875,-0.6251220703125,-0.2867431640625,4.21142578125,4.21142578125,-1.03759765625,4,dennis
1772890036.1411433,-0.8187255859375,-0.5816650390625,-0.11328125,-2.25830078125,10.925292015075684,0.1831054538488388,4,dennis
1772890036.1411433,-0.801025390625,-0.62841796875,-0.1983642578125,1.03759765625,7.751464366912842,2.197265625,4,dennis
1772890036.1411433,-0.8533935546875,-0.5821533203125,-0.135498046875,-2.929687261581421,6.652831554412842,2.01416015625,4,dennis
1772890036.1988618,-0.74853515625,-0.4549560546875,-0.0792236328125,-4.69970703125,17.39501953125,-16.7236328125,4,dennis
1772890036.2600715,-0.60791015625,-0.3935546875,-0.177001953125,14.526366233825684,5.737304210662842,-26.794431686401367,4,dennis
1772890036.2600715,-0.53857421875,-0.409423828125,0.138916015625,5.676269054412842,-3.662109136581421,-33.3251953125,4,dennis
1772890036.3216634,-0.3707275390625,-0.3812255859375,-0.16796875,39.794921875,-10.437010765075684,-24.963376998901367,4,dennis
1772890036.439883,-0.3885498046875,-0.364013671875,-0.0277099609375,17.578125,-24.597166061401367,-15.930174827575684,4,dennis
1772890036.439883,-0.259521484375,-0.4189453125,-0.1929931640625,10.437010765075684,-37.41455078125,-3.112792730331421,4,dennis
1772890036.4435601,-0.5059814453125,-0.294189453125,0.1148681640625,18.00537109375,-35.400390625,-4.57763671875,4,dennis
1772890036.5010133,-0.2698974609375,-0.5740966796875,-0.4915771484375,21.362302780151367,-33.935546875,-6.103515148162842,4,dennis
1772890036.5010133,-0.80419921875,-0.4075927734375,-0.0704345703125,1.4648436307907104,-28.137205123901367,-20.080564498901367,4,dennis
1772890036.5606976,-0.5341796875,-0.613037109375,-0.5408935546875,-2.868652105331421,-8.11767578125,-22.216794967651367,4,dennis
1772890036.6770468,-1.028076171875,-0.4730224609375,-0.1170654296875,-31.799314498901367,0.9155272841453552,-38.26904296875,4,dennis
1772890036.6770468,-0.766357421875,-0.5189208984375,-0.7220458984375,8.6669921875,16.66259765625,-34.3017578125,4,dennis
1772890036.7407095,-1.403076171875,-0.5877685546875,-0.142333984375,-43.395992279052734,19.8974609375,-52.551265716552734,4,dennis
1772890036.7417648,-1.010986328125,-0.3538818359375,-0.4024658203125,16.29638671875,33.0810546875,-47.363277435302734,4,dennis
1772890036.9214945,-1.3369140625,-0.53125,-0.326171875,-18.9208984375,27.832029342651367,-53.100582122802734,4,dennis
1772890036.9214945,-1.1663818359375,-0.2677001953125,-0.22509765625,10.009765625,18.310546875,-42.602535247802734,4,dennis
1772890036.9214945,-0.9942626953125,-0.2593994140625,-0.0599365234375,-7.995604991912842,18.12744140625,-36.376953125,4,dennis
1772890036.9804459,-1.3260498046875,-0.24365234375,-0.30908203125,17.9443359375,25.451658248901367,-46.691890716552734,4,dennis
1772890036.9804459,-1.307373046875,-0.1671142578125,-0.2340087890625,13.793944358825684,10.070799827575684,-37.353515625,4,dennis
1772890037.1011186,-1.089599609375,-0.0340576171875,0.041015625,-31.738279342651367,-3.417968511581421,-24.108884811401367,4,dennis
1772890037.1011186,-1.0943603515625,0.0159912109375,-0.040771484375,-9.09423828125,5.0048828125,-15.563963890075684,4,dennis
1772890037.1598837,-1.12109375,-0.2735595703125,-0.231689453125,-17.2119140625,3.967284917831421,-10.925292015075684,4,dennis
1772890037.162008,-1.07373046875,-0.1131591796875,-0.1993408203125,-16.7236328125,2.13623046875,-10.314940452575684,4,dennis
1772890037.162008,-0.9869384765625,-0.1416015625,-0.0772705078125,-16.6015625,-1.2817381620407104,-6.896972179412842,4,dennis
1772890037.215712,-0.9111328125,-0.046875,-0.069580078125,-3.417968511581421,-1.8310545682907104,-3.784179449081421,4,dennis
1772890037.275599,-0.9530029296875,-0.18994140625,-0.1209716796875,-14.160155296325684,-2.990722417831421,-1.5258787870407104,4,dennis
1772890037.275599,-0.986328125,-0.1258544921875,-0.0977783203125,-8.30078125,-1.4648436307907104,1.5869139432907104,4,dennis
1772890037.4606886,-1.0032958984375,-0.1478271484375,-0.127197265625,8.7890625,1.03759765625,0.9155272841453552,4,dennis
1772890037.4606886,-0.9642333984375,-0.1883544921875,-0.1307373046875,-6.835937023162842,-0.4882812201976776,-1.6479490995407104,4,dennis
1772890037.4625485,-0.96337890625,-0.1224365234375,-0.0687255859375,-9.21630859375,1.2817381620407104,-3.417968511581421,4,dennis
1772890037.520569,-0.9609375,-0.1385498046875,-0.1329345703125,5.065917491912842,3.051757574081421,0.0610351525247097,4,dennis
1772890037.520569,-0.9814453125,-0.1651611328125,-0.108154296875,-5.859374523162842,2.38037109375,1.7089842557907104,4,dennis
1772890037.520569,-0.9864501953125,-0.1373291015625,-0.096435546875,0.4272460639476776,3.845214605331421,-1.2817381620407104,4,dennis
1772890037.580402,-0.946533203125,-0.1553955078125,-0.117919921875,3.051757574081421,2.929687261581421,-2.807616949081421,4,dennis
1772890037.8819673,-0.8839111328125,-0.126953125,-0.0897216796875,-2.50244140625,1.2817381620407104,-0.9765624403953552,4,dennis
1772890037.8819673,-0.8175048828125,-0.114990234375,-0.0989990234375,2.563476324081421,0.6713866591453552,0.9155272841453552,4,dennis
1772890037.8819673,-0.74462890625,-0.1220703125,-0.077392578125,2.197265625,1.0986328125,2.197265625,4,dennis
1772890037.8843927,-0.7574462890625,-0.1436767578125,-0.1102294921875,0.30517578125,2.929687261581421,2.807616949081421,4,dennis
1772890037.9411814,-2.1591796875,-0.0255126953125,-0.09130859375,-21.057126998901367,-33.935546875,71.22802734375,4,dennis
1772890037.9438026,-1.9124755859375,-0.1986083984375,-0.38134765625,33.38623046875,-54.077144622802734,139.6484375,4,dennis
1772890038.0011594,-1.4305419921875,-0.607177734375,-0.3509521484375,-14.343260765075684,-50.231929779052734,140.07568359375,4,dennis
1772890038.061201,-1.0087890625,-0.466796875,-0.3468017578125,12.451170921325684,-37.29248046875,129.21142578125,4,dennis
1772890038.120121,-0.6634521484375,-0.63525390625,-0.2666015625,-2.0751953125,-19.10400390625,107.42186737060547,4,dennis
1772890038.120121,-0.3560791015625,-0.3636474609375,-0.100830078125,-4.08935546875,-2.13623046875,71.47216796875,4,dennis
1772890038.120121,-0.167236328125,-0.5062255859375,-0.109619140625,10.620116233825684,11.840819358825684,41.687007904052734,4,dennis
1772890038.1782973,-0.074462890625,-0.2789306640625,-0.176025390625,15.686034202575684,15.930174827575684,16.11328125,4,dennis
1772890038.240838,-0.0543212890625,-0.344482421875,0.0771484375,10.803221702575684,18.24951171875,-8.85009765625,4,dennis
1772890038.3020604,-0.057373046875,-0.3448486328125,-0.105224609375,39.306640625,29.602048873901367,-14.648436546325684,4,dennis
1772890038.3020604,-0.227783203125,-0.3087158203125,-0.0830078125,32.1044921875,17.88330078125,-18.12744140625,4,dennis
1772890038.3608303,-0.2864990234375,-0.4815673828125,-0.0396728515625,1.03759765625,21.362302780151367,-7.324218273162842,4,dennis
1772890038.3608303,-0.48388671875,-0.3863525390625,-0.2138671875,38.02490234375,10.070799827575684,2.685546636581421,4,dennis
1772890038.4199133,-0.6173095703125,-0.52734375,-0.1148681640625,-37.2314453125,-0.9765624403953552,1.4648436307907104,4,dennis
1772890038.4776971,-0.760498046875,-0.534912109375,-0.13916015625,0.0610351525247097,2.01416015625,2.868652105331421,4,dennis
1772890038.4776971,-0.8382568359375,-0.6314697265625,-0.3392333984375,-20.751951217651367,-4.82177734375,-0.8544921278953552,4,dennis
1772890038.5415046,-0.8814697265625,-0.62890625,-0.168212890625,-12.817381858825684,5.676269054412842,-3.540038824081421,4,dennis
1772890038.5995164,-0.8797607421875,-0.6265869140625,-0.2806396484375,-13.610838890075684,7.629394054412842,-2.3193359375,4,dennis
1772890038.7178354,-0.783447265625,-0.6326904296875,-0.185546875,5.554198741912842,8.11767578125,-2.807616949081421,4,dennis
1772890038.7178354,-0.7550048828125,-0.6121826171875,-0.165771484375,-9.6435546875,8.544921875,-2.563476324081421,4,dennis
1772890038.7178354,-0.661865234375,-0.55517578125,-0.12548828125,6.530761241912842,5.126952648162842,-0.3662109076976776,4,dennis
1772890038.7804613,-0.51806640625,-0.5181884765625,-0.121826171875,-8.056640625,-2.685546636581421,6.286620616912842,4,dennis
1772890038.7804613,-0.466064453125,-0.421875,-0.0855712890625,-16.357421875,-7.690429210662842,11.840819358825684,4,dennis
1772890038.8397198,-0.3330078125,-0.4083251953125,-0.0335693359375,-18.12744140625,-13.854979515075684,16.7236328125,4,dennis
1772890038.9622238,-0.3970947265625,-0.539794921875,-0.2474365234375,-12.817381858825684,-15.869139671325684,12.939452171325684,4,dennis
1772890038.9622238,-0.5306396484375,-0.5123291015625,0.0283203125,-21.789548873901367,-19.83642578125,3.356933355331421,4,dennis
1772890038.9622238,-0.47021484375,-0.5809326171875,-0.3763427734375,-6.774901866912842,-18.06640625,1.9531248807907104,4,dennis
1772890038.9640677,-0.6834716796875,-0.5028076171875,0.11474609375,-36.1328125,-24.047849655151367,-14.709471702575684,4,dennis
1772890039.1418543,-0.4683837890625,-0.51318359375,-0.4549560546875,29.541013717651367,-2.197265625,-14.099120140075684,4,dennis
1772890039.1427367,-0.7908935546875,-0.6876220703125,-0.0911865234375,-61.401363372802734,-18.06640625,-28.503416061401367,4,dennis
1772890039.1427367,-0.8228759765625,-0.397705078125,-0.1339111328125,17.2119140625,20.812986373901367,-38.4521484375,4,dennis
1772890039.143616,-0.585693359375,-0.769775390625,-0.4686279296875,-13.854979515075684,-7.324218273162842,-33.02001953125,4,dennis
1772890039.19612,-1.03857421875,-0.4146728515625,0.101806640625,-50.659175872802734,22.094724655151367,-46.264644622802734,4,dennis
1772890039.19612,-0.712158203125,-0.5362548828125,-0.4464111328125,63.903804779052734,18.9208984375,-41.687007904052734,4,dennis
1772890039.322561,-1.00146484375,-0.49951171875,-0.0106201171875,-59.570308685302734,14.953612327575684,-56.945796966552734,4,dennis
1772890039.322561,-0.9676513671875,-0.462646484375,-0.1552734375,31.372068405151367,25.512693405151367,-70.37353515625,4,dennis
1772890039.322561,-1.0047607421875,-0.5843505859375,-0.2740478515625,8.48388671875,16.2353515625,-68.115234375,4,dennis
1772890039.497476,-1.15478515625,-0.32470703125,-0.1036376953125,-17.51708984375,16.9677734375,-77.880859375,4,dennis
1772890039.497476,-1.1890869140625,-0.3751220703125,0.011962890625,3.295898199081421,21.423337936401367,-80.68846893310547,4,dennis
1772890039.497476,-1.2432861328125,-0.2740478515625,-0.33251953125,28.564451217651367,19.83642578125,-62.316890716552734,4,dennis
1772890039.5026848,-1.2952880859375,-0.3067626953125,-0.1177978515625,-20.568845748901367,1.8310545682907104,-41.809078216552734,4,dennis
1772890039.6813416,-1.274658203125,-0.072998046875,-0.072021484375,6.347655773162842,-3.417968511581421,-28.991697311401367,4,dennis
1772890039.6813416,-1.3406982421875,-0.287353515625,-0.078369140625,-5.249022960662842,-0.54931640625,-20.507810592651367,4,dennis
1772890039.6813416,-1.2288818359375,-0.0858154296875,-0.1392822265625,1.0986328125,-1.6479490995407104,-8.60595703125,4,dennis
1772890039.6864095,-1.1025390625,-0.198486328125,-0.1153564453125,10.375975608825684,-6.469726085662842,2.990722417831421,4,dennis
1772890039.7418358,-0.9136962890625,-0.22021484375,-0.0347900390625,3.173827886581421,-5.554198741912842,3.051757574081421,4,dennis
1772890039.8017824,-0.947265625,-0.2149658203125,-0.1162109375,6.164550304412842,-2.38037109375,3.112792730331421,4,dennis
1772890039.8027844,-0.970947265625,-0.2265625,-0.1204833984375,5.798339366912842,-1.2817381620407104,0.0,4,dennis
1772890039.9213874,-0.9710693359375,-0.251220703125,-0.060302734375,-2.807616949081421,0.9765624403953552,-4.7607421875,4,dennis
1772890039.9213874,-0.9459228515625,-0.2349853515625,-0.1119384765625,2.868652105331421,-0.8544921278953552,-5.676269054412842,4,dennis
1772890039.9213874,-0.9627685546875,-0.2177734375,-0.0509033203125,-17.15087890625,-1.03759765625,-6.164550304412842,4,dennis
1772890040.0405893,-0.935302734375,-0.180419921875,-0.1080322265625,-7.934569835662842,2.197265625,-3.723144292831421,4,dennis
1772890040.0405893,-0.9842529296875,-0.243896484375,-0.121826171875,-10.681151390075684,1.4038084745407104,-0.6713866591453552,4,dennis
1772890040.0405893,-1.0279541015625,-0.1617431640625,-0.0623779296875,-10.192870140075684,2.197265625,0.54931640625,4,dennis
1772890040.0998523,-0.9696044921875,-0.2037353515625,-0.109375,3.784179449081421,3.845214605331421,-2.563476324081421,4,dennis
1772890040.0998523,-0.914794921875,-0.20263671875,-0.1014404296875,-6.835937023162842,1.0986328125,-4.45556640625,4,dennis
1772890040.1586113,-0.872802734375,-0.12841796875,-0.0577392578125,7.141112804412842,2.44140625,-1.7700194120407104,4,dennis
1772890040.2163582,-0.7830810546875,-0.169677734375,-0.0958251953125,7.080077648162842,2.868652105331421,1.220703125,4,dennis
1772890040.2163582,-0.7362060546875,-0.13916015625,-0.0489501953125,2.685546636581421,2.38037109375,3.112792730331421,4,dennis
1772890040.4003663,-0.7271728515625,-0.138427734375,-0.1107177734375,15.563963890075684,3.906249761581421,3.234863042831421,4,dennis
1772890040.4003663,-0.93798828125,-0.1800537109375,-0.0743408203125,-1.8310545682907104,4.5166015625,-5.920409679412842,4,dennis
1772890040.4003663,-1.615234375,-0.257568359375,-0.0870361328125,-21.301267623901367,13.122557640075684,-15.258788108825684,4,dennis
1772890040.511321,-1.971435546875,-0.127197265625,-0.44482421875,-5.249022960662842,-10.620116233825684,3.051757574081421,4,dennis
1772890040.511321,-2.11181640625,0.0546875,-0.056640625,-1.6479490995407104,-27.099607467651367,67.44384765625,4,dennis
1772890040.511321,-2.100341796875,-0.2655029296875,-0.173583984375,11.596678733825684,-46.386714935302734,124.08446502685547,4,dennis
1772890040.5243118,-1.8199462890625,-0.45947265625,-0.283935546875,15.502928733825684,-50.842281341552734,155.82275390625,4,dennis
1772890040.7004497,-1.248291015625,-0.7161865234375,-0.341796875,2.50244140625,-49.194332122802734,150.87890625,4,dennis
1772890040.7004497,-0.8570556640625,-0.546142578125,-0.119140625,-7.080077648162842,-31.677244186401367,128.173828125,4,dennis
1772890040.7561367,-0.45654296875,-0.5107421875,-0.24853515625,5.249022960662842,-9.6435546875,99.85350799560547,4,dennis
1772890040.7561367,-0.2640380859375,-0.5975341796875,-0.1632080078125,-19.04296875,5.737304210662842,55.297847747802734,4,dennis
1772890040.7561367,-0.2042236328125,-0.3363037109375,-0.0452880859375,10.498045921325684,16.11328125,7.568358898162842,4,dennis
1772890040.8225467,-0.2041015625,-0.564208984375,-0.06689453125,-2.868652105331421,22.033689498901367,1.8310545682907104,4,dennis
1772890040.8225467,-0.293701171875,-0.299072265625,-0.0833740234375,34.423828125,21.301267623901367,-6.225585460662842,4,dennis
1772890040.9405708,-0.14892578125,-0.3756103515625,-0.030029296875,-4.94384765625,24.841306686401367,-15.014647483825684,4,dennis
1772890040.9405708,-0.21630859375,-0.27490234375,0.0562744140625,12.695311546325684,18.00537109375,-11.291502952575684,4,dennis
1772890040.9405708,-0.331787109375,-0.3603515625,0.010498046875,23.986814498901367,14.892577171325684,-6.347655773162842,4,dennis
1772890040.9990325,-0.6231689453125,-0.4708251953125,-0.116455078125,-8.72802734375,7.568358898162842,-5.676269054412842,4,dennis
1772890041.061536,-0.782958984375,-0.7625732421875,-0.2855224609375,17.02880859375,6.835937023162842,8.60595703125,4,dennis
1772890041.061536,-1.0089111328125,-0.555419921875,-0.320556640625,-4.7607421875,8.30078125,-2.0751953125,4,dennis
1772890041.1204731,-0.90380859375,-0.77685546875,-0.09130859375,4.69970703125,13.366698265075684,-9.70458984375,4,dennis
1772890041.1782303,-0.7510986328125,-0.5968017578125,-0.1593017578125,7.385253429412842,4.82177734375,-10.131834983825684,4,dennis
1772890041.1782303,-0.729736328125,-0.6370849609375,-0.1641845703125,7.263183116912842,-0.6103515625,-8.6669921875,4,dennis
1772890041.2401493,-0.8509521484375,-0.6806640625,-0.2230224609375,0.8544921278953552,9.33837890625,-3.540038824081421,4,dennis
1772890041.2401493,-0.7884521484375,-0.5771484375,-0.1177978515625,-7.202147960662842,10.375975608825684,-1.15966796875,4,dennis
1772890041.3018706,-0.67724609375,-0.567626953125,-0.130859375,-1.5869139432907104,13.854979515075684,-1.0986328125,4,dennis
1772890041.360148,-0.455810546875,-0.4696044921875,-0.0115966796875,-16.66259765625,4.7607421875,-2.01416015625,4,dennis
1772890041.360148,-0.30517578125,-0.4033203125,-0.0015869140625,-13.793944358825684,-4.638671875,3.479003667831421,4,dennis
1772890041.4223244,-0.1624755859375,-0.397216796875,-0.0565185546875,-14.221190452575684,-21.728513717651367,10.375975608825684,4,dennis
1772890041.4769535,-0.4219970703125,-0.409912109375,0.1353759765625,-14.587401390075684,-27.038572311401367,12.268065452575684,4,dennis
1772890041.4769535,-0.2354736328125,-0.467041015625,-0.322509765625,12.756346702575684,-29.174802780151367,6.347655773162842,4,dennis
1772890041.5392761,-0.636474609375,-0.4588623046875,0.1033935546875,-47.302242279052734,-32.77587890625,-18.06640625,4,dennis
1772890041.6004372,-0.4730224609375,-0.523193359375,-0.305908203125,29.235837936401367,2.624511480331421,-31.860349655151367,4,dennis
1772890041.6004372,-0.597412109375,-0.6334228515625,-0.3065185546875,-25.878904342651367,-28.686521530151367,-36.92626953125,4,dennis
1772890041.662097,-0.744140625,-0.402587890625,0.0516357421875,-8.36181640625,11.230467796325684,-48.950191497802734,4,dennis
1772890041.7147484,-0.9036865234375,-0.741455078125,-0.5252685546875,16.4794921875,8.85009765625,-48.522945404052734,4,dennis
1772890041.7147484,-1.0797119140625,-0.42333984375,-0.1884765625,3.540038824081421,23.376462936401367,-61.401363372802734,4,dennis
1772890041.782921,-0.8594970703125,-0.8111572265625,-0.233154296875,43.273921966552734,21.972654342651367,-55.664058685302734,4,dennis
1772890041.9017131,-1.2095947265625,-0.1788330078125,-0.1939697265625,28.869626998901367,16.845703125,-64.14794921875,4,dennis
1772890041.9017131,-1.0399169921875,-0.6185302734375,-0.024658203125,-3.784179449081421,19.1650390625,-71.47216796875,4,dennis
1772890041.903099,-1.3931884765625,-0.294677734375,-0.2955322265625,27.038572311401367,33.8134765625,-75.86669921875,4,dennis
1772890042.0805182,-1.1181640625,-0.4351806640625,-0.1864013671875,72.8759765625,7.812499523162842,-53.588863372802734,4,dennis
1772890042.141546,-1.073486328125,-0.25390625,0.0321044921875,-1.3427733182907104,10.803221702575684,-45.166011810302734,4,dennis
1772890042.141546,-1.1844482421875,-0.2806396484375,-0.067138671875,36.31591796875,19.4091796875,-43.518062591552734,4,dennis
1772890042.1422238,-1.29736328125,-0.31787109375,-0.239990234375,10.253905296325684,15.808104515075684,-38.39111328125,4,dennis
1772890042.1438003,-1.279052734375,-0.136474609375,-0.0137939453125,-4.94384765625,8.30078125,-11.535643577575684,4,dennis
1772890042.202141,-1.13134765625,-0.2548828125,-0.2095947265625,-1.5869139432907104,-0.6103515625,-9.3994140625,4,dennis
1772890042.3231559,-1.0001220703125,-0.1392822265625,-0.0406494140625,-31.066892623901367,-0.3662109076976776,-7.202147960662842,4,dennis
1772890042.3231559,-0.9471435546875,-0.140625,-0.0941162109375,-5.310058116912842,-0.3662109076976776,-0.6103515625,4,dennis
1772890042.3231559,-0.9759521484375,-0.2364501953125,-0.134765625,-15.380858421325684,-1.7089842557907104,2.50244140625,4,dennis
1772890042.3819244,-1.0035400390625,-0.1341552734375,-0.07373046875,-8.23974609375,1.03759765625,3.173827886581421,4,dennis
1772890042.3819244,-0.9755859375,-0.1842041015625,-0.127197265625,1.03759765625,0.9155272841453552,4.2724609375,4,dennis
1772890042.5018322,-0.9169921875,-0.2017822265625,-0.1051025390625,-10.375975608825684,-2.25830078125,4.94384765625,4,dennis
1772890042.5018322,-0.9195556640625,-0.142578125,-0.0665283203125,-1.220703125,1.220703125,3.112792730331421,4,dennis
1772890042.5037599,-0.962646484375,-0.2281494140625,-0.1497802734375,-2.868652105331421,2.685546636581421,0.9765624403953552,4,dennis
1772890042.5602818,-1.0078125,-0.189208984375,-0.1087646484375,-1.4038084745407104,1.2817381620407104,0.1220703050494194,4,dennis
1772890042.5602818,-0.965087890625,-0.1910400390625,-0.0828857421875,-2.44140625,1.0986328125,-2.685546636581421,4,dennis
1772890042.6210194,-0.9735107421875,-0.17578125,-0.0693359375,-7.263183116912842,-1.5258787870407104,-0.1220703050494194,4,dennis
1772890042.6779065,-0.9886474609375,-0.156982421875,-0.1195068359375,0.0610351525247097,-0.9155272841453552,3.234863042831421,4,dennis
1772890042.6779065,-1.0150146484375,-0.2117919921875,-0.1070556640625,-5.859374523162842,-0.6713866591453552,2.13623046875,4,dennis
1772890042.796043,-0.99658203125,-0.185302734375,-0.08203125,-0.3662109076976776,0.54931640625,-1.7700194120407104,4,dennis
1772890042.796043,-0.9224853515625,-0.1817626953125,-0.1083984375,5.493163585662842,-0.6713866591453552,-2.807616949081421,4,dennis
1772890042.8036926,-0.8480224609375,-0.1727294921875,-0.0679931640625,-5.371093273162842,-2.807616949081421,-1.6479490995407104,4,dennis
1772890042.8595932,-0.7767333984375,-0.1385498046875,-0.0687255859375,2.563476324081421,-1.15966796875,0.54931640625,4,dennis
1772890042.9816089,-0.7227783203125,-0.1759033203125,-0.1058349609375,-1.15966796875,-1.0986328125,1.3427733182907104,4,dennis
1772890042.9816089,-0.77978515625,-0.14697265625,-0.0655517578125,-4.5166015625,3.051757574081421,-0.1220703050494194,4,dennis
1772890042.9816089,-1.1712646484375,-0.196044921875,-0.145751953125,-13.122557640075684,8.7890625,-6.286620616912842,4,dennis
1772890043.2204754,-1.875244140625,-0.1798095703125,-0.19677734375,-31.677244186401367,2.01416015625,-5.126952648162842,4,dennis
1772890043.2217443,-2.0582275390625,0.0499267578125,-0.2479248046875,4.21142578125,-21.301267623901367,33.63037109375,4,dennis
1772890043.2217443,-2.180908203125,-0.1470947265625,-0.1492919921875,-15.502928733825684,-53.283687591552734,91.12548065185547,4,dennis
1772890043.2217443,-1.9239501953125,-0.177734375,-0.215576171875,6.225585460662842,-63.049312591552734,124.38964080810547,4,dennis
1772890043.2807283,-0.7554931640625,-0.3748779296875,-0.156494140625,5.187987804412842,-30.639646530151367,86.54784393310547,4,dennis
1772890043.3392444,-0.4149169921875,-0.6514892578125,-0.2816162109375,2.38037109375,-11.840819358825684,62.744136810302734,4,dennis
1772890043.3392444,-0.2537841796875,-0.4251708984375,-0.279296875,9.09423828125,-7.141112804412842,33.935546875,4,dennis
1772890043.3969178,-0.1151123046875,-0.413818359375,-0.0625,6.835937023162842,3.784179449081421,10.742186546325684,4,dennis
1772890043.3969178,-0.1693115234375,-0.3382568359375,0.034912109375,13.916014671325684,11.413573265075684,8.11767578125,4,dennis
1772890043.462545,-0.1414794921875,-0.2911376953125,-0.130126953125,35.400390625,23.742673873901367,-2.624511480331421,4,dennis
1772890043.521475,-0.2235107421875,-0.37890625,-0.1591796875,6.835937023162842,22.827146530151367,-0.6103515625,4,dennis
1772890043.521475,-0.3275146484375,-0.3895263671875,0.010986328125,5.371093273162842,22.338865280151367,6.164550304412842,4,dennis
1772890043.5772448,-0.456787109375,-0.4267578125,-0.2435302734375,-10.864256858825684,16.357421875,10.559081077575684,4,dennis
1772890043.6379616,-0.6181640625,-0.52734375,-0.0367431640625,-12.268065452575684,8.1787109375,9.58251953125,4,dennis
1772890043.6379616,-0.6641845703125,-0.591064453125,-0.2205810546875,-7.690429210662842,8.11767578125,12.084959983825684,4,dennis
1772890043.6966648,-0.759033203125,-0.5616455078125,-0.2330322265625,-29.479978561401367,0.3662109076976776,5.737304210662842,4,dennis
1772890043.7608204,-0.767333984375,-0.6380615234375,-0.1768798828125,-2.685546636581421,6.347655773162842,7.568358898162842,4,dennis
1772890043.8222675,-0.802001953125,-0.5810546875,-0.334716796875,-12.207030296325684,2.807616949081421,3.723144292831421,4,dennis
1772890043.8222675,-0.8160400390625,-0.6617431640625,-0.1956787109375,3.295898199081421,7.263183116912842,2.13623046875,4,dennis
1772890043.8786263,-0.8258056640625,-0.609619140625,-0.2386474609375,-2.197265625,9.27734375,3.601073980331421,4,dennis
1772890043.8786263,-0.8406982421875,-0.6072998046875,-0.2354736328125,8.1787109375,9.46044921875,1.7089842557907104,4,dennis
1772890043.9417715,-0.7564697265625,-0.7318115234375,-0.1961669921875,2.50244140625,9.8876953125,2.13623046875,4,dennis
1772890043.9417715,-0.79931640625,-0.4765625,-0.1259765625,-2.563476324081421,11.535643577575684,-1.6479490995407104,4,dennis
1772890044.0010262,-0.5802001953125,-0.717529296875,-0.2034912109375,1.0986328125,7.568358898162842,-5.920409679412842,4,dennis
1772890044.060304,-0.686279296875,-0.4947509765625,-0.0989990234375,2.197265625,1.4648436307907104,-3.784179449081421,4,dennis
1772890044.060304,-0.5911865234375,-0.5792236328125,-0.12939453125,5.493163585662842,-2.44140625,-2.685546636581421,4,dennis
1772890044.1797585,-0.5859375,-0.5306396484375,-0.1507568359375,9.033203125,-5.615233898162842,0.54931640625,4,dennis
1772890044.2401972,-0.5220947265625,-0.499755859375,-0.099853515625,9.94873046875,-9.70458984375,2.624511480331421,4,dennis
1772890044.2401972,-0.406005859375,-0.4588623046875,-0.1212158203125,21.057126998901367,-14.770506858825684,0.7934569716453552,4,dennis
1772890044.2401972,-0.3770751953125,-0.533935546875,-0.052978515625,-2.3193359375,-21.850584030151367,0.2441406100988388,4,dennis
1772890044.2962108,-0.2613525390625,-0.2120361328125,-0.191650390625,1.15966796875,-29.663084030151367,-8.36181640625,4,dennis
1772890044.2962108,-0.548095703125,-0.634765625,-0.0989990234375,-0.4882812201976776,-22.216794967651367,-12.390135765075684,4,dennis
1772890044.360609,-0.306884765625,-0.3251953125,-0.32861328125,21.667478561401367,-18.85986328125,-18.37158203125,4,dennis
1772890044.4218495,-0.7861328125,-0.5445556640625,0.00341796875,-16.9677734375,-26.977537155151367,-26.367185592651367,4,dennis
1772890044.4218495,-0.7191162109375,-0.4691162109375,-0.4388427734375,-0.1831054538488388,21.911619186401367,-37.04833984375,4,dennis
1772890044.4807854,-0.5972900390625,-0.7410888671875,-0.48974609375,-13.183592796325684,-3.417968511581421,-51.452632904052734,4,dennis
1772890044.6003876,-1.0804443359375,-0.450927734375,-0.121826171875,-25.329587936401367,36.0107421875,-66.58935546875,4,dennis
1772890044.6545126,-0.857177734375,-0.50439453125,-0.4200439453125,30.822751998901367,30.334470748901367,-63.720699310302734,4,dennis
1772890044.6625435,-1.2193603515625,-0.4649658203125,-0.2557373046875,-22.705076217651367,40.710445404052734,-79.7119140625,4,dennis
1772890044.6625435,-1.0184326171875,-0.3798828125,-0.3372802734375,8.1787109375,26.916501998901367,-79.40673828125,4,dennis
1772890044.6625435,-1.189453125,-0.36181640625,-0.034423828125,-6.408690929412842,29.113767623901367,-88.31786346435547,4,dennis
1772890044.7219338,-1.39599609375,-0.4891357421875,-0.1796875,7.202147960662842,47.546382904052734,-92.34618377685547,4,dennis
1772890044.7219338,-1.3048095703125,-0.49267578125,-0.2510986328125,21.850584030151367,32.28759765625,-71.6552734375,4,dennis
1772890044.779106,-1.2918701171875,-0.0467529296875,-0.16845703125,-3.295898199081421,17.7001953125,-41.625972747802734,4,dennis
1772890044.8414972,-1.107177734375,-0.1309814453125,0.1107177734375,-14.038084983825684,1.8920897245407104,-12.634276390075684,4,dennis
1772890044.8414972,-1.088623046875,-0.035888671875,0.0513916015625,-24.414060592651367,4.21142578125,0.1831054538488388,4,dennis
1772890044.900508,-1.11376953125,-0.2303466796875,-0.1585693359375,-19.6533203125,4.0283203125,5.554198741912842,4,dennis
1772890045.0205808,-1.2005615234375,-0.1624755859375,-0.18310546875,-29.479978561401367,4.57763671875,2.01416015625,4,dennis
1772890045.0205808,-1.1939697265625,-0.1854248046875,-0.1510009765625,-11.657713890075684,1.220703125,0.7934569716453552,4,dennis
1772890045.0205808,-1.0721435546875,-0.134033203125,-0.1177978515625,-3.723144292831421,0.30517578125,0.1831054538488388,4,dennis
1772890045.1422305,-0.991943359375,-0.1448974609375,-0.0753173828125,-2.01416015625,-0.7324218153953552,-0.1220703050494194,4,dennis
1772890045.1422305,-0.933349609375,-0.152099609375,-0.0908203125,10.742186546325684,0.1831054538488388,1.2817381620407104,4,dennis
1772890045.441394,-0.9537353515625,-0.2010498046875,-0.104248046875,1.6479490995407104,-0.6713866591453552,2.01416015625,4,dennis
1772890045.441394,-0.9923095703125,-0.1595458984375,-0.108642578125,4.57763671875,0.54931640625,1.5258787870407104,4,dennis
1772890045.562482,-0.9814453125,-0.202392578125,-0.108154296875,4.57763671875,0.7934569716453552,-0.7934569716453552,4,dennis
1772890045.562482,-0.952392578125,-0.148681640625,-0.0579833984375,-1.6479490995407104,-0.7324218153953552,-1.15966796875,4,dennis
1772890045.562482,-1.0106201171875,-0.1673583984375,-0.09716796875,0.6103515625,-1.4038084745407104,-1.0986328125,4,dennis
1772890045.566852,-0.9058837890625,-0.2061767578125,-0.0926513671875,-2.685546636581421,-0.4882812201976776,-5.249022960662842,4,dennis
1772890045.6184611,-0.7904052734375,-0.1456298828125,-0.0859375,1.6479490995407104,0.0,-0.1831054538488388,4,dennis
1772890045.6184611,-0.7425537109375,-0.1702880859375,-0.0985107421875,-0.30517578125,-0.1831054538488388,2.01416015625,4,dennis
1772890045.7405941,-0.7569580078125,-0.142578125,-0.0799560546875,0.54931640625,0.8544921278953552,2.38037109375,4,dennis
1772890045.7940948,-1.1180419921875,-0.1490478515625,-0.053466796875,-8.9111328125,5.249022960662842,-0.8544921278953552,4,dennis
1772890045.7940948,-1.7066650390625,-0.2130126953125,-0.17578125,-31.982419967651367,4.45556640625,1.4648436307907104,4,dennis
1772890045.8024192,-2.0582275390625,-0.025146484375,-0.2998046875,-7.934569835662842,-13.671874046325684,32.53173828125,4,dennis
1772890045.8024192,-2.2021484375,-0.110595703125,-0.17578125,-13.671874046325684,-42.175289154052734,87.76854705810547,4,dennis
1772890045.8612125,-2.217529296875,-0.2440185546875,-0.1622314453125,-3.601073980331421,-52.368160247802734,139.46533203125,4,dennis
1772890045.98071,-1.6795654296875,-0.497314453125,-0.3756103515625,15.319823265075684,-50.659175872802734,148.92578125,4,dennis
1772890045.98071,-1.1015625,-0.5977783203125,-0.287109375,-8.85009765625,-40.832515716552734,127.99071502685547,4,dennis
1772890046.0400398,-0.7646484375,-0.58642578125,-0.204345703125,21.789548873901367,-22.033689498901367,106.44530487060547,4,dennis
1772890046.0400398,-0.3721923828125,-0.5369873046875,-0.2020263671875,-4.150390625,-5.920409679412842,72.75390625,4,dennis
1772890046.0400398,-0.206787109375,-0.2867431640625,-0.14794921875,0.8544921278953552,0.4882812201976776,41.625972747802734,4,dennis
1772890046.0965903,-0.1529541015625,-0.51123046875,-0.113037109375,12.512206077575684,7.690429210662842,16.4794921875,4,dennis
1772890046.1583095,-0.1470947265625,-0.3135986328125,-0.08349609375,23.193357467651367,12.084959983825684,-4.5166015625,4,dennis
1772890046.1583095,-0.1171875,-0.3485107421875,-0.0390625,16.4794921875,15.747069358825684,-15.991209983825684,4,dennis
1772890046.2818184,-0.10302734375,-0.3533935546875,-0.0732421875,12.756346702575684,14.343260765075684,-14.526366233825684,4,dennis
1772890046.2818184,-0.254638671875,-0.3424072265625,-0.0020751953125,13.061522483825684,13.305663108825684,-8.48388671875,4,dennis
1772890046.2828567,-0.3709716796875,-0.4102783203125,-0.1138916015625,2.197265625,10.192870140075684,2.38037109375,4,dennis
1772890046.3358893,-0.5604248046875,-0.469482421875,-0.1832275390625,14.221190452575684,-2.197265625,14.160155296325684,4,dennis
1772890046.4021993,-0.7366943359375,-0.500244140625,-0.110595703125,-15.991209983825684,2.197265625,8.97216796875,4,dennis
1772890046.4021993,-0.7889404296875,-0.688720703125,-0.32666015625,6.164550304412842,-0.2441406100988388,5.554198741912842,4,dennis
1772890046.4615154,-0.8575439453125,-0.64404296875,-0.169189453125,-12.145995140075684,-0.9765624403953552,1.5258787870407104,4,dennis
1772890046.5194368,-0.80224609375,-0.6116943359375,-0.2274169921875,-2.624511480331421,2.807616949081421,-2.990722417831421,4,dennis
1772890046.5194368,-0.7406005859375,-0.63818359375,-0.2286376953125,-8.7890625,1.5258787870407104,0.7934569716453552,4,dennis
1772890046.5826538,-0.7750244140625,-0.5830078125,-0.2188720703125,-2.563476324081421,5.0048828125,1.7700194120407104,4,dennis
1772890046.6980875,-0.7469482421875,-0.606689453125,-0.187744140625,-1.0986328125,7.629394054412842,1.03759765625,4,dennis
1772890046.6980875,-0.7139892578125,-0.586181640625,-0.2342529296875,0.1831054538488388,3.723144292831421,3.051757574081421,4,dennis
1772890046.6980875,-0.751220703125,-0.6107177734375,-0.130615234375,1.3427733182907104,1.9531248807907104,2.38037109375,4,dennis
1772890046.7570305,-0.767822265625,-0.6622314453125,-0.2489013671875,0.4272460639476776,-0.6713866591453552,1.4648436307907104,4,dennis
1772890046.7570305,-0.8525390625,-0.6461181640625,-0.2645263671875,-3.173827886581421,-0.6103515625,1.03759765625,4,dennis
1772890046.8220708,-0.8248291015625,-0.65283203125,-0.1973876953125,-0.6103515625,3.479003667831421,-1.3427733182907104,4,dennis
1772890046.9406226,-0.82080078125,-0.6258544921875,-0.21533203125,5.249022960662842,6.042479991912842,-2.563476324081421,4,dennis
1772890046.9406226,-0.6817626953125,-0.575927734375,-0.16552734375,6.835937023162842,0.54931640625,-1.4038084745407104,4,dennis
1772890046.9406226,-0.56005859375,-0.4615478515625,-0.080810546875,0.6103515625,1.4038084745407104,-1.3427733182907104,4,dennis
1772890047.0007455,-0.4322509765625,-0.5020751953125,-0.1302490234375,-1.5869139432907104,9.70458984375,2.3193359375,4,dennis
1772890047.0007455,-0.2926025390625,-0.4027099609375,-0.2197265625,-15.075682640075684,8.36181640625,6.774901866912842,4,dennis
1772890047.2408874,-0.3782958984375,-0.431884765625,0.0565185546875,-32.04345703125,-2.13623046875,6.958007335662842,4,dennis
1772890047.2995446,-0.300537109375,-0.3460693359375,-0.04150390625,-17.88330078125,-3.173827886581421,-0.6713866591453552,4,dennis
1772890047.2995446,-0.218017578125,-0.459228515625,-0.1861572265625,-14.770506858825684,-21.179197311401367,3.967284917831421,4,dennis
1772890047.2995446,-0.5316162109375,-0.538330078125,-0.044677734375,-28.747556686401367,-8.48388671875,-7.141112804412842,4,dennis
1772890047.2995446,-0.612060546875,-0.6844482421875,-0.4925537109375,36.376953125,12.756346702575684,-50.781246185302734,4,dennis
1772890047.3047493,-1.2371826171875,-0.6824951171875,-0.1944580078125,-45.837398529052734,4.7607421875,-66.650390625,4,dennis
1772890047.3623703,-0.91455078125,-0.694580078125,-0.2264404296875,11.718749046325684,13.183592796325684,-64.88037109375,4,dennis
1772890047.4805925,-1.24560546875,-0.441162109375,-0.227783203125,7.812499523162842,-1.03759765625,-56.945796966552734,4,dennis
1772890047.4805925,-1.0150146484375,-0.4759521484375,-0.0816650390625,-4.69970703125,-1.03759765625,-55.664058685302734,4,dennis
1772890047.4844587,-1.0479736328125,-0.44140625,-0.20361328125,17.9443359375,0.7324218153953552,-49.560543060302734,4,dennis
1772890047.597986,-1.1070556640625,-0.443603515625,-0.152587890625,-3.234863042831421,2.44140625,-53.710933685302734,4,dennis
1772890047.6023178,-1.1185302734375,-0.355712890625,-0.1512451171875,6.042479991912842,8.9111328125,-54.687496185302734,4,dennis
1772890047.6023178,-1.3387451171875,-0.396240234375,-0.189453125,35.7666015625,6.469726085662842,-56.945796966552734,4,dennis
1772890047.6616247,-1.1778564453125,-0.286376953125,-0.089111328125,-8.30078125,3.784179449081421,-53.771968841552734,4,dennis
1772890047.778091,-1.1712646484375,-0.146484375,-0.2291259765625,8.9111328125,6.286620616912842,-41.503902435302734,4,dennis
1772890047.778091,-1.0767822265625,-0.29052734375,-0.1700439453125,-14.465331077575684,-2.01416015625,-25.756834030151367,4,dennis
1772890047.778091,-1.0438232421875,0.0032958984375,-0.076904296875,-4.8828125,5.065917491912842,-12.573241233825684,4,dennis
1772890047.778091,-1.0611572265625,-0.242431640625,-0.182373046875,25.146482467651367,3.784179449081421,-7.690429210662842,4,dennis
1772890047.8401964,-1.106201171875,-0.2479248046875,-0.16455078125,-18.4326171875,2.44140625,-12.268065452575684,4,dennis
1772890047.8992157,-1.1141357421875,-0.1141357421875,-0.097412109375,14.587401390075684,2.13623046875,-9.58251953125,4,dennis
1772890048.011647,-0.9954833984375,-0.2596435546875,-0.15625,7.751464366912842,-1.4038084745407104,-3.540038824081421,4,dennis
1772890048.0230608,-0.9615478515625,-0.19482421875,-0.0814208984375,-7.812499523162842,-3.112792730331421,-2.807616949081421,4,dennis
1772890048.0230608,-0.9541015625,-0.1845703125,-0.080078125,-0.54931640625,0.4272460639476776,-2.50244140625,4,dennis
1772890048.0815604,-0.9508056640625,-0.2120361328125,-0.1802978515625,-2.807616949081421,2.13623046875,-0.1220703050494194,4,dennis
1772890048.1408358,-0.9710693359375,-0.2000732421875,-0.1448974609375,-12.084959983825684,1.4038084745407104,0.0,4,dennis
1772890048.1408358,-0.94677734375,-0.1878662109375,-0.1015625,-6.103515148162842,0.7324218153953552,1.5258787870407104,4,dennis
1772890048.201162,-0.9832763671875,-0.2279052734375,-0.1160888671875,-13.000487327575684,-1.03759765625,0.4272460639476776,4,dennis
1772890048.202337,-1.02197265625,-0.1864013671875,-0.1064453125,-8.056640625,0.7324218153953552,-0.3662109076976776,4,dennis
1772890048.2602565,-1.01318359375,-0.199462890625,-0.1795654296875,2.44140625,2.38037109375,-0.4272460639476776,4,dennis
1772890048.2602565,-0.9462890625,-0.1871337890625,-0.133056640625,-5.737304210662842,-0.1220703050494194,-0.30517578125,4,dennis
1772890048.3202548,-0.8580322265625,-0.1663818359375,-0.084716796875,2.01416015625,-0.54931640625,0.4882812201976776,4,dennis
1772890048.378577,-0.76953125,-0.18701171875,-0.121826171875,1.7089842557907104,-1.3427733182907104,1.7700194120407104,4,dennis
1772890048.378577,-0.7220458984375,-0.146728515625,-0.115234375,-1.5258787870407104,-1.7089842557907104,3.051757574081421,4,dennis
1772890048.4411833,-0.7088623046875,-0.1461181640625,-0.0970458984375,4.33349609375,2.44140625,4.82177734375,4,dennis
1772890048.4969852,-0.878662109375,-0.1734619140625,-0.1053466796875,2.0751953125,5.615233898162842,-1.4038084745407104,4,dennis
1772890048.5602572,-1.5216064453125,-0.279541015625,-0.1392822265625,-30.944822311401367,15.197752952575684,-15.319823265075684,4,dennis
1772890048.5602572,-2.0828857421875,-0.0146484375,-0.50146484375,5.310058116912842,-7.873534679412842,4.150390625,4,dennis
1772890048.620279,-2.2432861328125,0.0408935546875,-0.1446533203125,-4.39453125,-27.099607467651367,64.39208984375,4,dennis
1772890048.8010674,-2.1907958984375,-0.0545654296875,-0.207275390625,33.3251953125,-44.067378997802734,125.30516815185547,4,dennis
1772890048.8010674,-1.875732421875,-0.4356689453125,-0.3953857421875,45.776363372802734,-42.114253997802734,151.79443359375,4,dennis
1772890048.855453,-1.2822265625,-0.7581787109375,-0.4893798828125,28.076169967651367,-51.025386810302734,141.54052734375,4,dennis
1772890048.855453,-0.790771484375,-0.4786376953125,-0.1531982421875,5.859374523162842,-28.930662155151367,109.86327362060547,4,dennis
1772890048.863594,-0.216796875,-0.3707275390625,-0.34033203125,2.746581792831421,-8.9111328125,53.344722747802734,4,dennis
1772890048.9189463,-0.089599609375,-0.2996826171875,-0.1280517578125,23.803709030151367,5.432128429412842,-1.15966796875,4,dennis
1772890048.9189463,-0.0765380859375,-0.3804931640625,-0.0965576171875,14.892577171325684,6.530761241912842,-9.70458984375,4,dennis
1772890049.0387418,-0.0377197265625,-0.2879638671875,-0.0831298828125,16.9677734375,8.1787109375,-11.779784202575684,4,dennis
1772890049.0387418,-0.18359375,-0.333740234375,-0.0341796875,6.835937023162842,7.812499523162842,-2.50244140625,4,dennis
1772890049.0447977,-0.33349609375,-0.388916015625,-0.1947021484375,-11.230467796325684,-1.5869139432907104,10.559081077575684,4,dennis
1772890049.1605234,-0.5540771484375,-0.4024658203125,-0.1549072265625,0.2441406100988388,-2.0751953125,23.132322311401367,4,dennis
1772890049.1605234,-0.666748046875,-0.5555419921875,-0.30126953125,-20.629880905151367,-0.54931640625,17.27294921875,4,dennis
1772890049.1638863,-0.783203125,-0.655517578125,-0.2900390625,-7.324218273162842,-1.7089842557907104,13.977049827575684,4,dennis
1772890049.2227128,-0.82958984375,-0.55908203125,-0.2149658203125,-19.04296875,-0.9155272841453552,1.7089842557907104,4,dennis
1772890049.2806344,-0.7554931640625,-0.6837158203125,-0.3338623046875,4.8828125,0.0610351525247097,-4.82177734375,4,dennis
1772890049.2806344,-0.7998046875,-0.6561279296875,-0.2926025390625,-8.23974609375,0.2441406100988388,-10.314940452575684,4,dennis
1772890049.3402839,-0.7325439453125,-0.616455078125,-0.2197265625,4.39453125,4.0283203125,-8.60595703125,4,dennis
1772890049.459896,-0.73388671875,-0.6671142578125,-0.324462890625,-3.234863042831421,3.479003667831421,-7.263183116912842,4,dennis
1772890049.459896,-0.695556640625,-0.572509765625,-0.194580078125,-2.563476324081421,1.4038084745407104,-3.906249761581421,4,dennis
1772890049.459896,-0.7015380859375,-0.6552734375,-0.2847900390625,-6.713866710662842,1.03759765625,-3.417968511581421,4,dennis
1772890049.6408308,-0.7608642578125,-0.608154296875,-0.229736328125,-8.11767578125,-1.8920897245407104,0.54931640625,4,dennis
1772890049.6408308,-0.7598876953125,-0.629638671875,-0.2979736328125,-4.638671875,0.3662109076976776,2.25830078125,4,dennis
1772890049.6408308,-0.810302734375,-0.6580810546875,-0.23974609375,-12.878417015075684,3.662109136581421,3.417968511581421,4,dennis
1772890049.6439617,-0.743896484375,-0.6600341796875,-0.2669677734375,-7.629394054412842,7.141112804412842,2.01416015625,4,dennis
1772890049.822081,-0.655517578125,-0.63232421875,-0.1395263671875,-18.37158203125,5.676269054412842,-1.5869139432907104,4,dennis
1772890049.822081,-0.634765625,-0.616455078125,-0.2056884765625,-9.1552734375,2.13623046875,-0.0610351525247097,4,dennis
1772890049.822081,-0.6854248046875,-0.601318359375,-0.18017578125,-13.854979515075684,-1.8920897245407104,1.220703125,4,dennis
1772890049.8241043,-0.672119140625,-0.5858154296875,-0.225830078125,-8.1787109375,-0.9155272841453552,-0.3662109076976776,4,dennis
1772890049.8757877,-0.7076416015625,-0.582763671875,-0.2381591796875,1.4038084745407104,-2.990722417831421,-3.234863042831421,4,dennis
1772890049.8757877,-0.66748046875,-0.5909423828125,-0.17626953125,-2.685546636581421,-4.33349609375,-4.5166015625,4,dennis
1772890049.9354403,-0.6011962890625,-0.5242919921875,-0.1553955078125,9.1552734375,-0.9765624403953552,-6.591796398162842,4,dennis
1772890049.9963684,-0.4515380859375,-0.5035400390625,-0.1810302734375,6.652831554412842,-3.112792730331421,-6.896972179412842,4,dennis
1772890049.9963684,-0.3623046875,-0.4189453125,-0.0477294921875,-13.671874046325684,-7.446288585662842,-3.112792730331421,4,dennis
1772890050.1222022,-0.388671875,-0.373291015625,-0.1917724609375,7.690429210662842,-7.446288585662842,-8.85009765625,4,dennis
1772890050.1232328,-0.2578125,-0.585693359375,-0.130859375,-15.014647483825684,-28.015134811401367,-8.48388671875,4,dennis
1772890050.123719,-0.517822265625,-0.27099609375,0.04296875,1.8310545682907104,0.1831054538488388,-23.864744186401367,4,dennis
1772890050.1811817,-0.31103515625,-0.756591796875,-0.4664306640625,23.620603561401367,3.234863042831421,-20.568845748901367,4,dennis
1772890050.233585,-0.5491943359375,-0.281494140625,-0.0777587890625,-33.99658203125,3.601073980331421,-41.564937591552734,4,dennis
1772890050.233585,-0.6776123046875,-0.639892578125,-0.168701171875,12.023924827575684,30.029294967651367,-54.077144622802734,4,dennis
1772890050.4220424,-0.781982421875,-0.5284423828125,-0.400146484375,37.841796875,26.550291061401367,-65.673828125,4,dennis
1772890050.4220424,-1.215087890625,-0.5621337890625,-0.1982421875,-16.66259765625,35.58349609375,-97.71727752685547,4,dennis
1772890050.4220424,-0.9420166015625,-0.37548828125,-0.26220703125,22.399900436401367,31.555173873901367,-116.33300018310547,4,dennis
1772890050.4220424,-1.714111328125,-0.4263916015625,-0.2169189453125,68.17626953125,34.423828125,-133.7890625,4,dennis
1772890050.479064,-1.4254150390625,-0.107421875,-0.14892578125,54.199214935302734,21.179197311401367,-62.255855560302734,4,dennis
1772890050.5377133,-1.634765625,-0.187255859375,-0.255126953125,41.564937591552734,16.54052734375,-19.6533203125,4,dennis
1772890050.594701,-1.282958984375,-0.1405029296875,0.0235595703125,-0.1220703050494194,-1.8310545682907104,1.9531248807907104,4,dennis
1772890050.6540763,-1.2254638671875,0.0177001953125,-0.1075439453125,17.2119140625,2.01416015625,9.1552734375,4,dennis
1772890050.6624534,-1.1240234375,-0.243896484375,-0.26220703125,-12.084959983825684,-6.958007335662842,12.878417015075684,4,dennis
1772890050.6624534,-1.076904296875,-0.1192626953125,-0.1365966796875,-28.930662155151367,-10.864256858825684,9.033203125,4,dennis
1772890050.7203624,-0.979248046875,-0.1715087890625,-0.1295166015625,-10.375975608825684,-8.11767578125,5.554198741912842,4,dennis
1772890050.7803552,-0.9112548828125,-0.2174072265625,-0.1483154296875,-15.014647483825684,-6.835937023162842,2.807616949081421,4,dennis
1772890050.7803552,-0.925537109375,-0.1566162109375,-0.1298828125,-23.681638717651367,-5.065917491912842,0.6103515625,4,dennis
1772890050.8412673,-0.894775390625,-0.140869140625,-0.1593017578125,-14.282225608825684,-2.563476324081421,-0.2441406100988388,4,dennis
1772890050.894759,-0.9154052734375,-0.2110595703125,-0.156005859375,-22.338865280151367,-3.356933355331421,-1.4648436307907104,4,dennis
1772890050.894759,-0.9285888671875,-0.1552734375,-0.1220703125,-11.108397483825684,-3.784179449081421,-1.3427733182907104,4,dennis
1772890050.9565718,-0.9461669921875,-0.17041015625,-0.135986328125,-12.390135765075684,-1.4038084745407104,-3.723144292831421,4,dennis
1772890051.0168226,-0.9537353515625,-0.182373046875,-0.1319580078125,-7.995604991912842,-0.4272460639476776,-2.197265625,4,dennis
1772890051.0168226,-0.9788818359375,-0.1717529296875,-0.152587890625,3.479003667831421,0.0610351525247097,-1.4648436307907104,4,dennis
1772890051.0791054,-0.9765625,-0.20556640625,-0.154296875,-2.868652105331421,-1.03759765625,0.0610351525247097,4,dennis
1772890051.136176,-0.9825439453125,-0.177490234375,-0.1072998046875,4.638671875,-0.4272460639476776,1.220703125,4,dennis
1772890051.136176,-0.9869384765625,-0.214599609375,-0.166748046875,5.615233898162842,0.2441406100988388,1.0986328125,4,dennis
1772890051.2016249,-0.987060546875,-0.1988525390625,-0.1494140625,-1.6479490995407104,-0.6713866591453552,0.0,4,dennis
1772890051.3214545,-0.9879150390625,-0.18310546875,-0.115478515625,2.807616949081421,0.7934569716453552,0.6713866591453552,4,dennis
1772890051.3214545,-0.966064453125,-0.2259521484375,-0.1588134765625,-0.4272460639476776,-0.3662109076976776,1.220703125,4,dennis
1772890051.3214545,-0.9696044921875,-0.1839599609375,-0.1317138671875,-4.94384765625,-0.7934569716453552,1.8920897245407104,4,dennis
1772890051.442422,-0.963623046875,-0.184814453125,-0.115234375,-1.5258787870407104,0.6713866591453552,2.746581792831421,4,dennis
1772890051.4979613,-0.9503173828125,-0.212646484375,-0.17236328125,-2.685546636581421,0.1220703050494194,2.563476324081421,4,dennis
1772890051.4979613,-0.962890625,-0.18212890625,-0.126220703125,-6.958007335662842,0.7934569716453552,2.25830078125,4,dennis
1772890051.4979613,-0.96435546875,-0.17724609375,-0.14013671875,2.3193359375,2.563476324081421,1.9531248807907104,4,dennis
1772890051.5615292,-0.961181640625,-0.17529296875,-0.1390380859375,-2.38037109375,1.5258787870407104,1.4038084745407104,4,dennis
1772890051.6203165,-0.9686279296875,-0.189697265625,-0.1456298828125,-0.4882812201976776,1.5869139432907104,0.7934569716453552,4,dennis
1772890051.6203165,-0.9605712890625,-0.19287109375,-0.15380859375,-1.03759765625,0.7934569716453552,1.4038084745407104,4,dennis
1772890051.6818292,-0.9560546875,-0.196044921875,-0.1448974609375,-0.30517578125,0.54931640625,0.8544921278953552,4,dennis
1772890051.740948,-0.962890625,-0.191162109375,-0.15380859375,-0.3662109076976776,0.7324218153953552,-1.3427733182907104,4,dennis
1772890051.740948,-0.9676513671875,-0.199951171875,-0.132080078125,-3.173827886581421,-0.2441406100988388,-1.5258787870407104,4,dennis
1772890051.8002915,-0.9696044921875,-0.1702880859375,-0.1578369140625,-1.3427733182907104,0.0,-0.7324218153953552,4,dennis
1772890051.8002915,-0.9659423828125,-0.2059326171875,-0.1590576171875,1.6479490995407104,0.1831054538488388,-0.1831054538488388,4,dennis
1772890051.8613327,-0.96533203125,-0.19287109375,-0.1392822265625,-0.4272460639476776,-0.54931640625,0.0,4,dennis
