time,ax,ay,az,gx,gy,gz,label,person
1772894927.8483737,0.629638671875,-0.668701171875,0.414306640625,-1.0986328125,1.9531248807907104,0.0,3,gustav
1772894927.9101162,0.630859375,-0.671142578125,0.4169921875,1.15966796875,2.563476324081421,-0.6713866591453552,3,gustav
1772894927.9101162,0.63427734375,-0.67431640625,0.4169921875,0.6713866591453552,2.50244140625,-1.4038084745407104,3,gustav
1772894927.957127,0.6380615234375,-0.685791015625,0.4146728515625,1.5869139432907104,2.01416015625,-2.13623046875,3,gustav
1772894928.0020545,0.6400146484375,-0.6923828125,0.4207763671875,0.4272460639476776,0.54931640625,-3.051757574081421,3,gustav
1772894928.0259922,0.632568359375,-0.69482421875,0.4222412109375,-0.0610351525247097,0.0,-2.01416015625,3,gustav
1772894928.0769267,0.6246337890625,-0.681396484375,0.4246826171875,-0.54931640625,-0.1831054538488388,-1.220703125,3,gustav
1772894928.1198516,0.6259765625,-0.6632080078125,0.4354248046875,-3.540038824081421,0.3662109076976776,-1.7700194120407104,3,gustav
1772894928.1350768,0.620361328125,-0.6676025390625,0.3946533203125,-2.38037109375,0.4272460639476776,0.0610351525247097,3,gustav
1772894928.1793168,0.6114501953125,-0.656494140625,0.3868408203125,-1.220703125,-0.1831054538488388,1.6479490995407104,3,gustav
1772894928.2124834,0.6326904296875,-0.662353515625,0.3740234375,-1.7089842557907104,-0.4272460639476776,1.5869139432907104,3,gustav
1772894928.267512,0.63671875,-0.68212890625,0.3590087890625,1.5258787870407104,-0.1831054538488388,0.6103515625,3,gustav
1772894928.2854288,0.63720703125,-0.6561279296875,0.3997802734375,3.112792730331421,0.7324218153953552,-0.8544921278953552,3,gustav
1772894928.3333263,0.6739501953125,-0.6456298828125,0.408203125,2.990722417831421,2.624511480331421,1.8920897245407104,3,gustav
1772894928.3767343,0.742919921875,-0.6727294921875,0.4451904296875,1.15966796875,2.563476324081421,3.417968511581421,3,gustav
1772894928.4025898,0.7625732421875,-0.688232421875,0.462646484375,-2.563476324081421,4.21142578125,-0.3662109076976776,3,gustav
1772894928.4353433,0.74951171875,-0.71923828125,0.46337890625,-4.21142578125,3.173827886581421,2.13623046875,3,gustav
1772894928.513352,0.7392578125,-0.645263671875,0.505126953125,-10.314940452575684,-1.220703125,7.080077648162842,3,gustav
1772894928.513352,0.7525634765625,-0.6424560546875,0.5037841796875,-21.911619186401367,-3.234863042831421,10.131834983825684,3,gustav
1772894928.5571914,0.7120361328125,-0.579833984375,0.4827880859375,-21.362302780151367,-5.432128429412842,10.864256858825684,3,gustav
1772894928.6027708,0.625732421875,-0.5335693359375,0.45751953125,-23.132322311401367,-5.126952648162842,12.145995140075684,3,gustav
1772894928.6313102,0.6109619140625,-0.456787109375,0.43994140625,-22.460935592651367,-2.868652105331421,9.09423828125,3,gustav
1772894928.6615877,0.579833984375,-0.45361328125,0.3931884765625,-21.301267623901367,-0.4272460639476776,11.901854515075684,3,gustav
1772894928.7219355,0.47509765625,-0.4381103515625,0.3662109375,-19.6533203125,1.5258787870407104,16.41845703125,3,gustav
1772894928.7532134,0.4857177734375,-0.4112548828125,0.364501953125,-12.878417015075684,5.493163585662842,25.573728561401367,3,gustav
1772894928.7982628,0.4708251953125,-0.462158203125,0.357177734375,-29.113767623901367,8.9111328125,31.677244186401367,3,gustav
1772894928.8239121,0.5404052734375,-0.45703125,0.348876953125,-31.127927780151367,13.916014671325684,33.63037109375,3,gustav
1772894928.8699229,0.5430908203125,-0.3924560546875,0.3887939453125,-36.0107421875,15.624999046325684,29.541013717651367,3,gustav
1772894928.9285028,0.5196533203125,-0.45458984375,0.3160400390625,-22.583005905151367,24.597166061401367,23.559568405151367,3,gustav
1772894928.9285028,0.53662109375,-0.4864501953125,0.4091796875,-24.353025436401367,21.301267623901367,17.4560546875,3,gustav
1772894928.9791012,0.5638427734375,-0.5054931640625,0.3411865234375,-22.644041061401367,21.118162155151367,12.451170921325684,3,gustav
1772894929.0054367,0.5675048828125,-0.4132080078125,0.396240234375,-13.122557640075684,10.986327171325684,7.568358898162842,3,gustav
1772894929.1684747,0.5498046875,-0.5133056640625,0.36572265625,-3.784179449081421,9.82666015625,5.981444835662842,3,gustav
1772894929.410761,0.606201171875,-0.58642578125,0.3441162109375,-18.4326171875,2.38037109375,16.17431640625,3,gustav
1772894929.410761,0.6514892578125,-0.4493408203125,0.43212890625,-6.530761241912842,3.845214605331421,22.827146530151367,3,gustav
1772894929.5304034,0.693359375,-0.47216796875,0.387939453125,3.234863042831421,13.061522483825684,18.5546875,3,gustav
1772894929.532532,0.7230224609375,-0.54638671875,0.3885498046875,6.958007335662842,9.6435546875,13.732909202575684,3,gustav
1772894929.532532,0.8543701171875,-0.467529296875,0.5057373046875,17.63916015625,0.3662109076976776,7.385253429412842,3,gustav
1772894929.5361226,0.982666015625,-0.410888671875,0.593994140625,-2.3193359375,3.540038824081421,-1.8920897245407104,3,gustav
1772894929.5904443,1.0308837890625,-0.4791259765625,0.6123046875,-15.197752952575684,6.164550304412842,-6.042479991912842,3,gustav
1772894929.7125576,0.96923828125,-0.507568359375,0.594482421875,2.50244140625,3.967284917831421,-5.920409679412842,3,gustav
1772894929.7125576,1.089599609375,-0.5902099609375,0.55224609375,-0.7324218153953552,0.54931640625,-7.019042491912842,3,gustav
1772894929.7125576,1.07958984375,-0.611572265625,0.620849609375,-2.25830078125,-4.08935546875,-5.432128429412842,3,gustav
1772894929.7125576,1.0751953125,-0.62548828125,0.6343994140625,-9.58251953125,-3.723144292831421,1.7089842557907104,3,gustav
1772894929.7714105,1.0919189453125,-0.541748046875,0.6585693359375,0.6103515625,1.9531248807907104,-2.990722417831421,3,gustav
1772894929.8918314,1.0924072265625,-0.633056640625,0.6541748046875,6.530761241912842,5.0048828125,-3.479003667831421,3,gustav
1772894929.8918314,1.05712890625,-0.6474609375,0.603759765625,-3.356933355331421,5.187987804412842,-1.03759765625,3,gustav
1772894929.893572,1.032958984375,-0.566650390625,0.6162109375,-0.6713866591453552,3.540038824081421,-2.563476324081421,3,gustav
1772894929.9512389,0.9669189453125,-0.6173095703125,0.5399169921875,0.7934569716453552,0.7324218153953552,-7.446288585662842,3,gustav
1772894930.00716,0.9761962890625,-0.586669921875,0.5413818359375,-1.4038084745407104,-2.25830078125,-6.530761241912842,3,gustav
1772894930.0130327,0.869873046875,-0.566162109375,0.4874267578125,5.981444835662842,-4.33349609375,-9.8876953125,3,gustav
1772894930.0729468,0.8670654296875,-0.5726318359375,0.49267578125,2.3193359375,-2.746581792831421,-18.4326171875,3,gustav
1772894930.0729468,0.820068359375,-0.6041259765625,0.4742431640625,4.33349609375,-3.784179449081421,-19.6533203125,3,gustav
1772894930.131406,0.8101806640625,-0.5819091796875,0.4744873046875,2.807616949081421,-1.15966796875,-25.024412155151367,3,gustav
1772894930.190146,0.7967529296875,-0.5736083984375,0.4498291015625,8.1787109375,-7.385253429412842,-31.127927780151367,3,gustav
1772894930.3126838,0.6683349609375,-0.5657958984375,0.4144287109375,-2.0751953125,-9.82666015625,-37.53662109375,3,gustav
1772894930.3717043,0.6097412109375,-0.603759765625,0.3934326171875,22.155759811401367,-9.6435546875,-39.85595703125,3,gustav
1772894930.3720536,0.569580078125,-0.5438232421875,0.368408203125,0.4882812201976776,-15.563963890075684,-38.51318359375,3,gustav
1772894930.3720536,0.4639892578125,-0.38134765625,0.3736572265625,1.220703125,-17.2119140625,-39.24560546875,3,gustav
1772894930.3720536,0.501708984375,-0.5374755859375,0.1474609375,23.132322311401367,-13.061522483825684,-42.602535247802734,3,gustav
1772894930.4286907,0.260009765625,-0.2791748046875,0.25927734375,21.423337936401367,-14.648436546325684,-30.700681686401367,3,gustav
1772894930.4902687,0.2474365234375,-0.3924560546875,0.173828125,21.118162155151367,-10.437010765075684,-24.291990280151367,3,gustav
1772894930.4902687,0.4249267578125,-0.46923828125,0.1470947265625,24.291990280151367,-2.38037109375,-16.845703125,3,gustav
1772894930.5514238,0.476806640625,-0.3768310546875,0.311767578125,-19.71435546875,-0.7934569716453552,8.85009765625,3,gustav
1772894930.7308192,0.612548828125,-0.4398193359375,0.3782958984375,-30.090330123901367,-2.929687261581421,19.1650390625,3,gustav
1772894930.7308192,0.6802978515625,-0.4876708984375,0.563720703125,-12.084959983825684,4.45556640625,18.85986328125,3,gustav
1772894930.7308192,0.83642578125,-0.6156005859375,0.588134765625,-10.498045921325684,10.070799827575684,-0.2441406100988388,3,gustav
1772894930.734765,0.7767333984375,-0.686767578125,0.598876953125,-3.540038824081421,10.131834983825684,-8.11767578125,3,gustav
1772894930.9127421,0.663818359375,-0.6929931640625,0.476318359375,-12.268065452575684,-1.8920897245407104,16.357421875,3,gustav
1772894930.9664671,0.6168212890625,-0.551513671875,0.4510498046875,-22.949216842651367,-2.868652105331421,23.559568405151367,3,gustav
1772894930.9664671,0.648193359375,-0.5113525390625,0.449951171875,-6.225585460662842,1.6479490995407104,12.268065452575684,3,gustav
1772894930.9664671,0.670166015625,-0.5438232421875,0.4639892578125,3.173827886581421,2.746581792831421,0.8544921278953552,3,gustav
1772894930.9749696,0.6951904296875,-0.581787109375,0.4764404296875,1.0986328125,-1.8920897245407104,0.1220703050494194,3,gustav
1772894931.0261674,0.628173828125,-0.5252685546875,0.505126953125,-3.845214605331421,-9.94873046875,12.573241233825684,3,gustav
1772894931.0893533,0.59521484375,-0.515625,0.4471435546875,-6.958007335662842,-4.39453125,22.277830123901367,3,gustav
1772894931.1503377,0.5108642578125,-0.4171142578125,0.406494140625,-12.634276390075684,0.4882812201976776,34.66796875,3,gustav
1772894931.1503377,0.45166015625,-0.30615234375,0.359619140625,-11.474608421325684,1.5258787870407104,45.227046966552734,3,gustav
1772894931.1503377,0.4425048828125,-0.2965087890625,0.32666015625,-8.60595703125,3.112792730331421,44.982906341552734,3,gustav
1772894931.2132337,0.4708251953125,-0.2991943359375,0.343994140625,-11.047362327575684,2.929687261581421,37.29248046875,3,gustav
1772894931.2698889,0.5029296875,-0.298828125,0.3447265625,-2.13623046875,1.7700194120407104,26.306150436401367,3,gustav
1772894931.2698889,0.5233154296875,-0.35546875,0.3763427734375,-17.51708984375,5.310058116912842,23.132322311401367,3,gustav
1772894931.4514625,0.6131591796875,-0.3658447265625,0.33056640625,-11.718749046325684,7.690429210662842,20.812986373901367,3,gustav
1772894931.4514625,0.6141357421875,-0.4364013671875,0.3555908203125,-25.634763717651367,12.695311546325684,19.47021484375,3,gustav
1772894931.4514625,0.681640625,-0.4495849609375,0.464111328125,-14.221190452575684,8.1787109375,20.202634811401367,3,gustav
1772894931.4514625,0.649658203125,-0.4473876953125,0.4058837890625,-5.126952648162842,5.310058116912842,14.892577171325684,3,gustav
1772894931.6904733,0.7310791015625,-0.5283203125,0.4576416015625,1.2817381620407104,-0.4272460639476776,20.446775436401367,3,gustav
1772894931.6904733,0.74755859375,-0.4683837890625,0.47509765625,-21.606443405151367,0.0,21.850584030151367,3,gustav
1772894931.8127077,0.8072509765625,-0.42431640625,0.535888671875,5.187987804412842,2.3193359375,13.244627952575684,3,gustav
1772894931.8127077,0.80908203125,-0.4302978515625,0.5511474609375,9.765625,5.371093273162842,17.15087890625,3,gustav
1772894931.8127077,0.927001953125,-0.3634033203125,0.5997314453125,-7.873534679412842,10.681151390075684,5.0048828125,3,gustav
1772894931.8127077,0.97998046875,-0.4398193359375,0.596435546875,2.685546636581421,7.324218273162842,-6.225585460662842,3,gustav
1772894931.87298,0.984375,-0.4764404296875,0.628662109375,-1.2817381620407104,4.82177734375,-29.907224655151367,3,gustav
1772894931.87298,0.9793701171875,-0.545166015625,0.5343017578125,7.324218273162842,3.845214605331421,-25.024412155151367,3,gustav
1772894931.9315584,1.0179443359375,-0.4881591796875,0.567138671875,-3.417968511581421,0.7324218153953552,-16.90673828125,3,gustav
1772894931.990193,1.037353515625,-0.444091796875,0.6435546875,3.540038824081421,0.1220703050494194,-7.446288585662842,3,gustav
1772894931.990193,1.1131591796875,-0.4945068359375,0.5843505859375,-1.0986328125,-0.8544921278953552,-4.638671875,3,gustav
1772894932.1127295,1.0570068359375,-0.46435546875,0.7003173828125,11.413573265075684,-1.4648436307907104,-12.817381858825684,3,gustav
1772894932.1127295,0.9625244140625,-0.6083984375,0.6346435546875,5.493163585662842,-0.1220703050494194,-13.000487327575684,3,gustav
1772894932.1137545,0.9542236328125,-0.6300048828125,0.648681640625,-1.8310545682907104,-1.9531248807907104,-5.981444835662842,3,gustav
1772894932.231914,0.936767578125,-0.5633544921875,0.6212158203125,1.9531248807907104,-1.03759765625,-1.9531248807907104,3,gustav
1772894932.231914,1.0054931640625,-0.5675048828125,0.67333984375,6.530761241912842,0.30517578125,-6.042479991912842,3,gustav
1772894932.2905993,1.038818359375,-0.596923828125,0.6854248046875,4.21142578125,2.01416015625,-10.803221702575684,3,gustav
1772894932.2905993,1.051025390625,-0.6634521484375,0.6187744140625,8.544921875,-1.9531248807907104,-13.427733421325684,3,gustav
1772894932.2905993,1.03564453125,-0.6690673828125,0.6773681640625,8.30078125,-7.446288585662842,-11.535643577575684,3,gustav
1772894932.3532388,0.9508056640625,-0.7718505859375,0.571044921875,-0.54931640625,-7.507323741912842,-1.7700194120407104,3,gustav
1772894932.412731,0.9405517578125,-0.5809326171875,0.62060546875,-11.352538108825684,-8.544921875,2.50244140625,3,gustav
1772894932.412731,0.93701171875,-0.58935546875,0.6297607421875,14.648436546325684,-5.493163585662842,-1.15966796875,3,gustav
1772894932.468907,0.8929443359375,-0.599853515625,0.5767822265625,-0.2441406100988388,-0.9155272841453552,-2.868652105331421,3,gustav
1772894932.590978,0.7626953125,-0.5238037109375,0.533935546875,4.82177734375,-2.01416015625,-4.0283203125,3,gustav
1772894932.590978,0.7735595703125,-0.5205078125,0.482177734375,6.652831554412842,0.4882812201976776,-2.0751953125,3,gustav
1772894932.6513505,0.673828125,-0.4298095703125,0.4189453125,-2.13623046875,0.4272460639476776,-1.6479490995407104,3,gustav
1772894932.6513505,0.543701171875,-0.479736328125,0.360107421875,10.314940452575684,8.97216796875,-13.916014671325684,3,gustav
1772894932.6513505,0.5751953125,-0.3489990234375,0.3951416015625,7.080077648162842,7.873534679412842,-14.892577171325684,3,gustav
1772894932.7722418,0.4718017578125,-0.362548828125,0.239990234375,17.578125,5.371093273162842,-15.136717796325684,3,gustav
1772894932.7722418,0.371337890625,-0.445068359375,0.218994140625,13.916014671325684,5.0048828125,-18.73779296875,3,gustav
1772894932.7722418,0.42724609375,-0.344482421875,0.2607421875,14.099120140075684,8.30078125,-14.160155296325684,3,gustav
1772894932.830423,0.4393310546875,-0.4259033203125,0.1798095703125,7.873534679412842,5.981444835662842,-3.234863042831421,3,gustav
1772894932.8861024,0.4127197265625,-0.3048095703125,0.2647705078125,5.065917491912842,5.493163585662842,7.080077648162842,3,gustav
1772894932.8861024,0.4517822265625,-0.3363037109375,0.179443359375,9.21630859375,11.718749046325684,12.817381858825684,3,gustav
1772894933.008304,0.50732421875,-0.3199462890625,0.2681884765625,-6.042479991912842,8.48388671875,17.08984375,3,gustav
1772894933.0127113,0.5498046875,-0.3387451171875,0.2833251953125,31.005857467651367,9.94873046875,4.33349609375,3,gustav
1772894933.0127113,0.6912841796875,-0.4229736328125,0.375244140625,25.207517623901367,12.023924827575684,-16.845703125,3,gustav
1772894933.0685892,0.7327880859375,-0.5028076171875,0.2884521484375,24.108884811401367,14.465331077575684,-24.719236373901367,3,gustav
1772894933.250731,0.798095703125,-0.326416015625,0.3675537109375,27.709959030151367,7.446288585662842,-34.85107421875,3,gustav
1772894933.250731,0.8455810546875,-0.6268310546875,0.42724609375,12.878417015075684,-4.5166015625,-21.667478561401367,3,gustav
1772894933.250731,0.894775390625,-0.6492919921875,0.40478515625,12.084959983825684,-18.12744140625,-13.305663108825684,3,gustav
1772894933.2549217,0.7969970703125,-0.639892578125,0.4378662109375,-5.126952648162842,-21.301267623901367,-6.713866710662842,3,gustav
1772894933.3128283,0.759765625,-0.64208984375,0.43505859375,-1.9531248807907104,-8.544921875,-3.601073980331421,3,gustav
1772894933.3656516,0.7607421875,-0.6162109375,0.4393310546875,1.3427733182907104,0.6713866591453552,6.774901866912842,3,gustav
1772894933.3656516,0.7967529296875,-0.565185546875,0.4483642578125,-11.169432640075684,1.5258787870407104,8.72802734375,3,gustav
1772894933.4320652,0.760498046875,-0.636474609375,0.437744140625,-31.860349655151367,-2.197265625,27.099607467651367,3,gustav
1772894933.4923062,0.73486328125,-0.47802734375,0.3526611328125,-31.616209030151367,-7.141112804412842,27.954099655151367,3,gustav
1772894933.4923062,0.7738037109375,-0.5555419921875,0.4332275390625,-26.489255905151367,-6.530761241912842,17.39501953125,3,gustav
1772894933.612874,0.819580078125,-0.4527587890625,0.47509765625,-4.0283203125,-4.57763671875,5.493163585662842,3,gustav
1772894933.612874,0.7412109375,-0.378173828125,0.4154052734375,-15.197752952575684,-3.784179449081421,11.230467796325684,3,gustav
1772894933.6716173,0.7042236328125,-0.518310546875,0.3843994140625,-15.808104515075684,-9.1552734375,19.95849609375,3,gustav
1772894933.7304835,0.6170654296875,-0.3031005859375,0.4041748046875,-22.949216842651367,-4.39453125,22.216794967651367,3,gustav
1772894933.7837713,0.5322265625,-0.1644287109375,0.401611328125,1.03759765625,-2.13623046875,23.498533248901367,3,gustav
1772894933.7921789,0.5264892578125,-0.49267578125,0.2354736328125,-24.169919967651367,-10.559081077575684,28.747556686401367,3,gustav
1772894933.793315,0.5673828125,-0.1942138671875,0.3973388671875,-29.113767623901367,-16.05224609375,18.37158203125,3,gustav
1772894933.850459,0.554443359375,-0.3468017578125,0.4210205078125,-22.827146530151367,-12.939452171325684,12.268065452575684,3,gustav
1772894933.850459,0.559814453125,-0.244873046875,0.4580078125,-3.540038824081421,-6.713866710662842,1.220703125,3,gustav
1772894933.9120255,0.5643310546875,-0.3271484375,0.3936767578125,-10.925292015075684,-0.1220703050494194,5.187987804412842,3,gustav
1772894933.9709976,0.588134765625,-0.322509765625,0.3587646484375,-13.122557640075684,4.33349609375,5.371093273162842,3,gustav
1772894933.9709976,0.585205078125,-0.38623046875,0.3394775390625,-12.817381858825684,5.859374523162842,2.50244140625,3,gustav
1772894934.0318446,0.654541015625,-0.3568115234375,0.4422607421875,-12.451170921325684,5.981444835662842,0.30517578125,3,gustav
1772894934.0926628,0.7060546875,-0.4132080078125,0.4189453125,-5.859374523162842,5.187987804412842,0.4882812201976776,3,gustav
1772894934.1520698,0.76953125,-0.4769287109375,0.4989013671875,-4.0283203125,1.03759765625,3.906249761581421,3,gustav
1772894934.152981,0.77734375,-0.462158203125,0.47705078125,2.624511480331421,2.685546636581421,6.164550304412842,3,gustav
1772894934.2704408,0.7579345703125,-0.43896484375,0.514404296875,-1.3427733182907104,2.0751953125,10.620116233825684,3,gustav
1772894934.2704408,0.781982421875,-0.420654296875,0.5186767578125,1.7089842557907104,2.44140625,19.6533203125,3,gustav
1772894934.2704408,0.7830810546875,-0.4010009765625,0.4869384765625,6.164550304412842,3.234863042831421,18.5546875,3,gustav
1772894934.3922863,0.7760009765625,-0.431884765625,0.45556640625,-5.126952648162842,6.286620616912842,14.343260765075684,3,gustav
1772894934.3922863,0.838623046875,-0.413330078125,0.4998779296875,-0.4882812201976776,7.080077648162842,3.234863042831421,3,gustav
1772894934.3930438,0.7957763671875,-0.4580078125,0.54150390625,12.145995140075684,7.263183116912842,-3.051757574081421,3,gustav
1772894934.4496999,0.8948974609375,-0.4774169921875,0.5355224609375,9.94873046875,2.990722417831421,-2.868652105331421,3,gustav
1772894934.4496999,0.8526611328125,-0.4002685546875,0.5965576171875,2.868652105331421,1.220703125,-3.112792730331421,3,gustav
1772894934.5708508,0.94384765625,-0.44677734375,0.604736328125,16.54052734375,1.15966796875,-17.63916015625,3,gustav
1772894934.5708508,0.989990234375,-0.479248046875,0.631103515625,13.488768577575684,1.03759765625,-28.747556686401367,3,gustav
1772894934.5736027,1.0697021484375,-0.5262451171875,0.6304931640625,14.099120140075684,-3.234863042831421,-27.526853561401367,3,gustav
1772894934.6339016,0.9691162109375,-0.66748046875,0.6475830078125,9.94873046875,-1.3427733182907104,-22.033689498901367,3,gustav
1772894934.6874275,1.08203125,-0.5445556640625,0.661376953125,6.591796398162842,3.112792730331421,-11.169432640075684,3,gustav
1772894934.6874275,1.049072265625,-0.6116943359375,0.629150390625,18.12744140625,0.3662109076976776,0.1831054538488388,3,gustav
1772894934.871086,0.99658203125,-0.612548828125,0.5982666015625,-8.056640625,5.371093273162842,4.8828125,3,gustav
1772894934.871086,0.968994140625,-0.5252685546875,0.5836181640625,-2.25830078125,3.295898199081421,5.432128429412842,3,gustav
1772894934.8733556,0.9412841796875,-0.6156005859375,0.557373046875,-3.906249761581421,3.417968511581421,0.6103515625,3,gustav
1772894934.8733556,0.9884033203125,-0.5941162109375,0.6666259765625,-8.36181640625,-0.6103515625,-4.45556640625,3,gustav
1772894934.9313142,0.9981689453125,-0.6202392578125,0.5687255859375,-1.7089842557907104,-3.112792730331421,-10.131834983825684,3,gustav
1772894934.9313142,1.1024169921875,-0.6749267578125,0.5999755859375,2.563476324081421,-9.1552734375,-12.268065452575684,3,gustav
1772894934.9924104,1.068603515625,-0.7113037109375,0.630859375,-1.6479490995407104,-8.1787109375,-9.33837890625,3,gustav
1772894935.0515058,1.0286865234375,-0.6749267578125,0.6510009765625,-6.408690929412842,-8.1787109375,-1.0986328125,3,gustav
1772894935.0515058,0.92529296875,-0.605224609375,0.6190185546875,3.540038824081421,-6.225585460662842,3.601073980331421,3,gustav
1772894935.1044667,0.885986328125,-0.60888671875,0.5916748046875,2.563476324081421,-1.9531248807907104,2.624511480331421,3,gustav
1772894935.171424,0.80078125,-0.644287109375,0.525146484375,-1.2817381620407104,-1.4038084745407104,0.9765624403953552,3,gustav
1772894935.171424,0.7545166015625,-0.527099609375,0.541259765625,7.080077648162842,-3.906249761581421,-9.82666015625,3,gustav
1772894935.2320411,0.698974609375,-0.5570068359375,0.48291015625,9.27734375,-0.2441406100988388,-21.972654342651367,3,gustav
1772894935.3540618,0.7442626953125,-0.5738525390625,0.4912109375,15.075682640075684,0.4882812201976776,-25.695798873901367,3,gustav
1772894935.3540618,0.6099853515625,-0.547119140625,0.495361328125,3.662109136581421,-15.136717796325684,-17.63916015625,3,gustav
1772894935.3540618,0.5098876953125,-0.534912109375,0.400390625,8.544921875,-10.498045921325684,-21.179197311401367,3,gustav
1772894935.4113033,0.5457763671875,-0.442626953125,0.3795166015625,5.493163585662842,-11.840819358825684,-22.888181686401367,3,gustav
1772894935.4113033,0.4029541015625,-0.30908203125,0.3720703125,-6.530761241912842,-27.404783248901367,-13.610838890075684,3,gustav
1772894935.4691622,0.40673828125,-0.371826171875,0.2490234375,15.319823265075684,-25.085447311401367,-17.9443359375,3,gustav
1772894935.5273898,0.3643798828125,-0.37548828125,0.1727294921875,15.075682640075684,-16.17431640625,-28.137205123901367,3,gustav
1772894935.5273898,0.282470703125,-0.31396484375,0.2098388671875,4.7607421875,-10.498045921325684,-21.911619186401367,3,gustav
1772894935.6522245,0.3236083984375,-0.411865234375,0.1727294921875,6.958007335662842,-0.9765624403953552,-13.305663108825684,3,gustav
1772894935.7716691,0.3936767578125,-0.2481689453125,0.3890380859375,4.0283203125,4.45556640625,8.544921875,3,gustav
1772894935.7716691,0.634033203125,-0.2010498046875,0.4615478515625,-7.751464366912842,-0.0610351525247097,21.728513717651367,3,gustav
1772894935.8287563,0.7855224609375,-0.3006591796875,0.546875,-10.192870140075684,-7.751464366912842,14.831542015075684,3,gustav
1772894935.8287563,0.9508056640625,-0.3892822265625,0.6937255859375,3.173827886581421,-0.4882812201976776,-14.404295921325684,3,gustav
1772894935.8287563,0.679443359375,-0.75537109375,0.4964599609375,20.141599655151367,0.7324218153953552,-22.338865280151367,3,gustav
1772894935.8913417,0.6380615234375,-0.743408203125,0.440673828125,-10.070799827575684,-6.286620616912842,3.784179449081421,3,gustav
1772894935.8913417,0.65087890625,-0.58984375,0.4964599609375,-16.54052734375,-5.859374523162842,18.06640625,3,gustav
1772894936.0127048,0.623046875,-0.5482177734375,0.5301513671875,-9.8876953125,4.45556640625,11.413573265075684,3,gustav
1772894936.0127048,0.6212158203125,-0.5770263671875,0.4974365234375,-0.9765624403953552,13.977049827575684,1.4038084745407104,3,gustav
1772894936.0127048,0.630126953125,-0.5506591796875,0.53271484375,-1.2817381620407104,13.061522483825684,0.3662109076976776,3,gustav
1772894936.071053,0.6859130859375,-0.51708984375,0.53564453125,-3.784179449081421,7.263183116912842,3.417968511581421,3,gustav
1772894936.071053,0.69677734375,-0.5283203125,0.53955078125,-4.08935546875,3.723144292831421,4.2724609375,3,gustav
1772894936.1804502,0.7308349609375,-0.513427734375,0.545654296875,-5.187987804412842,6.103515148162842,-2.563476324081421,3,gustav
1772894936.2492719,0.72119140625,-0.5252685546875,0.5255126953125,-5.859374523162842,3.112792730331421,-1.0986328125,3,gustav
1772894936.2492719,0.6468505859375,-0.5008544921875,0.509765625,-9.8876953125,3.356933355331421,4.82177734375,3,gustav
1772894936.2492719,0.613525390625,-0.4354248046875,0.4500732421875,-16.357421875,3.356933355331421,15.136717796325684,3,gustav
1772894936.3700907,0.573974609375,-0.3934326171875,0.4149169921875,-21.240232467651367,2.746581792831421,21.423337936401367,3,gustav
1772894936.3700907,0.5355224609375,-0.3277587890625,0.3880615234375,-18.00537109375,1.220703125,23.681638717651367,3,gustav
1772894936.3739374,0.4696044921875,-0.3016357421875,0.348388671875,-16.54052734375,-0.1831054538488388,29.296873092651367,3,gustav
1772894936.430683,0.4595947265625,-0.3170166015625,0.350830078125,-12.390135765075684,-0.4272460639476776,24.841306686401367,3,gustav
1772894936.430683,0.429443359375,-0.3753662109375,0.3448486328125,-10.559081077575684,1.4648436307907104,21.423337936401367,3,gustav
1772894936.5511582,0.4608154296875,-0.36865234375,0.339111328125,-9.8876953125,3.356933355331421,21.362302780151367,3,gustav
1772894936.5511582,0.4833984375,-0.3846435546875,0.351806640625,-7.446288585662842,4.39453125,16.2353515625,3,gustav
1772894936.5511582,0.5050048828125,-0.3944091796875,0.431884765625,-4.94384765625,11.108397483825684,21.057126998901367,3,gustav
1772894936.6127663,0.5467529296875,-0.39501953125,0.4132080078125,-12.023924827575684,13.427733421325684,17.88330078125,3,gustav
1772894936.6655095,0.6331787109375,-0.4158935546875,0.4603271484375,4.45556640625,19.04296875,13.671874046325684,3,gustav
1772894936.6655095,0.7164306640625,-0.4661865234375,0.482421875,-0.7934569716453552,19.8974609375,7.324218273162842,3,gustav
1772894936.7322793,0.73095703125,-0.4769287109375,0.47900390625,4.57763671875,17.88330078125,-1.8920897245407104,3,gustav
1772894936.902242,0.8458251953125,-0.523681640625,0.5552978515625,3.845214605331421,10.742186546325684,0.4882812201976776,3,gustav
1772894936.902242,0.88623046875,-0.4866943359375,0.50537109375,0.1220703050494194,0.7324218153953552,-1.220703125,3,gustav
1772894936.902242,0.917724609375,-0.513671875,0.6053466796875,2.13623046875,-3.784179449081421,-4.8828125,3,gustav
1772894936.902242,0.8553466796875,-0.5487060546875,0.5257568359375,15.380858421325684,-0.7324218153953552,-5.981444835662842,3,gustav
1772894936.9714327,0.85986328125,-0.543212890625,0.5478515625,6.469726085662842,-5.310058116912842,-1.7700194120407104,3,gustav
1772894936.9714327,0.8634033203125,-0.53857421875,0.585205078125,13.061522483825684,-0.2441406100988388,-6.713866710662842,3,gustav
1772894937.0914867,0.9091796875,-0.561767578125,0.6055908203125,6.042479991912842,-2.746581792831421,-1.3427733182907104,3,gustav
1772894937.0914867,0.96728515625,-0.5418701171875,0.6837158203125,-8.4228515625,-2.929687261581421,1.3427733182907104,3,gustav
1772894937.0940373,1.0059814453125,-0.4788818359375,0.6849365234375,2.807616949081421,3.051757574081421,-4.33349609375,3,gustav
1772894937.2025564,0.990234375,-0.626220703125,0.618896484375,5.065917491912842,5.432128429412842,-10.437010765075684,3,gustav
1772894937.2025564,0.9029541015625,-0.578857421875,0.632080078125,-3.845214605331421,6.408690929412842,-13.427733421325684,3,gustav
1772894937.214006,0.9764404296875,-0.6064453125,0.5767822265625,-0.30517578125,-0.7324218153953552,-16.11328125,3,gustav
1772894937.2685006,0.931640625,-0.5748291015625,0.6346435546875,-0.1220703050494194,-0.8544921278953552,-17.2119140625,3,gustav
1772894937.3272552,0.98046875,-0.6636962890625,0.64111328125,5.065917491912842,-1.3427733182907104,-18.12744140625,3,gustav
1772894937.3272552,1.01123046875,-0.753173828125,0.669189453125,-4.45556640625,-7.080077648162842,-8.544921875,3,gustav
1772894937.3925505,0.977783203125,-0.7305908203125,0.6912841796875,7.873534679412842,-5.737304210662842,-10.009765625,3,gustav
1772894937.4523869,0.9862060546875,-0.6744384765625,0.642578125,4.94384765625,-3.906249761581421,-7.446288585662842,3,gustav
1772894937.4532146,0.986572265625,-0.5889892578125,0.6259765625,14.038084983825684,0.2441406100988388,-8.9111328125,3,gustav
1772894937.5128098,0.9693603515625,-0.6475830078125,0.6016845703125,9.765625,-0.6103515625,-13.977049827575684,3,gustav
1772894937.5686364,0.8076171875,-0.7452392578125,0.585693359375,10.375975608825684,-7.995604991912842,-19.34814453125,3,gustav
1772894937.5686364,0.8167724609375,-0.6094970703125,0.639892578125,-4.7607421875,-10.192870140075684,-15.380858421325684,3,gustav
1772894937.8019168,0.7774658203125,-0.6922607421875,0.521240234375,20.751951217651367,-4.8828125,-16.05224609375,3,gustav
1772894937.8019168,0.8016357421875,-0.808837890625,0.57470703125,3.234863042831421,-0.2441406100988388,-9.6435546875,3,gustav
1772894937.8019168,0.687255859375,-0.685302734375,0.5345458984375,-6.408690929412842,0.4882812201976776,-6.042479991912842,3,gustav
1772894937.8165271,0.750732421875,-0.634033203125,0.56298828125,-17.2119140625,0.8544921278953552,-5.249022960662842,3,gustav
1772894937.8692021,0.481689453125,-0.63330078125,0.335205078125,0.30517578125,5.371093273162842,-14.648436546325684,3,gustav
1772894937.9317994,0.4703369140625,-0.447998046875,0.36474609375,-7.080077648162842,2.38037109375,-19.10400390625,3,gustav
1772894937.9898486,0.416748046875,-0.4276123046875,0.2957763671875,16.90673828125,4.0283203125,-31.860349655151367,3,gustav
1772894937.9898486,0.5072021484375,-0.4219970703125,0.31982421875,16.357421875,-3.479003667831421,-31.127927780151367,3,gustav
1772894938.0492167,0.393310546875,-0.309814453125,0.2796630859375,2.0751953125,-10.131834983825684,-22.827146530151367,3,gustav
1772894938.108874,0.338623046875,-0.3880615234375,0.2733154296875,15.930174827575684,-6.713866710662842,-12.817381858825684,3,gustav
1772894938.108874,0.4237060546875,-0.447021484375,0.3770751953125,3.417968511581421,-4.8828125,0.4882812201976776,3,gustav
1772894938.1711164,0.3839111328125,-0.4505615234375,0.2794189453125,-21.118162155151367,-8.48388671875,21.545408248901367,3,gustav
1772894938.1711164,0.4610595703125,-0.3870849609375,0.3297119140625,-23.803709030151367,-1.5869139432907104,23.559568405151367,3,gustav
1772894938.3466883,0.5380859375,-0.450439453125,0.3553466796875,2.807616949081421,18.1884765625,16.4794921875,3,gustav
1772894938.3466883,0.72998046875,-0.630615234375,0.38818359375,10.070799827575684,29.235837936401367,11.352538108825684,3,gustav
1772894938.3466883,0.794921875,-0.597900390625,0.45556640625,-3.051757574081421,20.080564498901367,11.779784202575684,3,gustav
1772894938.354879,0.8548583984375,-0.5089111328125,0.5341796875,-12.268065452575684,4.7607421875,10.253905296325684,3,gustav
1772894938.4106731,0.7542724609375,-0.495849609375,0.4937744140625,-3.967284917831421,-1.8920897245407104,11.474608421325684,3,gustav
1772894938.4106731,0.688720703125,-0.5809326171875,0.4114990234375,-1.15966796875,2.868652105331421,9.82666015625,3,gustav
1772894938.473072,0.6480712890625,-0.55859375,0.4183349609375,-2.44140625,4.5166015625,2.624511480331421,3,gustav
1772894938.5915537,0.672119140625,-0.48388671875,0.4427490234375,-5.432128429412842,3.784179449081421,3.417968511581421,3,gustav
1772894938.5915537,0.6761474609375,-0.4666748046875,0.4200439453125,2.25830078125,0.8544921278953552,0.3662109076976776,3,gustav
1772894938.5915537,0.70751953125,-0.5328369140625,0.4493408203125,4.39453125,0.1831054538488388,-3.051757574081421,3,gustav
1772894938.6517687,0.7061767578125,-0.459716796875,0.437255859375,-1.15966796875,-4.150390625,-5.920409679412842,3,gustav
1772894938.6517687,0.677001953125,-0.45654296875,0.47021484375,-5.615233898162842,-4.150390625,-3.906249761581421,3,gustav
1772894938.7117174,0.678466796875,-0.43994140625,0.4393310546875,-13.305663108825684,-2.25830078125,7.385253429412842,3,gustav
1772894938.7710462,0.622802734375,-0.411376953125,0.415283203125,-10.192870140075684,2.38037109375,8.7890625,3,gustav
1772894938.7710462,0.60595703125,-0.458984375,0.414306640625,-5.920409679412842,2.868652105331421,10.437010765075684,3,gustav
1772894938.8898566,0.5865478515625,-0.429931640625,0.326416015625,-13.427733421325684,-1.15966796875,17.27294921875,3,gustav
1772894938.8898566,0.4908447265625,-0.425537109375,0.291259765625,-28.381345748901367,-11.169432640075684,33.5693359375,3,gustav
1772894938.8898566,0.425537109375,-0.4447021484375,0.3475341796875,-9.58251953125,-12.512206077575684,31.249998092651367,3,gustav
1772894939.0130405,0.395263671875,-0.4488525390625,0.33154296875,-13.183592796325684,-0.30517578125,25.512693405151367,3,gustav
1772894939.0130405,0.4263916015625,-0.50390625,0.3170166015625,-2.563476324081421,-1.7700194120407104,26.611326217651367,3,gustav
1772894939.0694492,0.501953125,-0.513916015625,0.3509521484375,2.01416015625,-1.03759765625,23.986814498901367,3,gustav
1772894939.130913,0.5269775390625,-0.427734375,0.4071044921875,2.25830078125,-0.9155272841453552,23.193357467651367,3,gustav
1772894939.130913,0.5604248046875,-0.412109375,0.36767578125,6.408690929412842,0.3662109076976776,27.343748092651367,3,gustav
1772894939.130913,0.6678466796875,-0.4207763671875,0.47216796875,8.9111328125,-1.15966796875,27.526853561401367,3,gustav
1772894939.2508218,0.69091796875,-0.4591064453125,0.4573974609375,8.72802734375,-1.2817381620407104,18.37158203125,3,gustav
1772894939.2508218,0.6927490234375,-0.4730224609375,0.470947265625,20.874021530151367,-0.3662109076976776,22.338865280151367,3,gustav
1772894939.3101363,0.8558349609375,-0.4669189453125,0.5074462890625,14.709471702575684,2.50244140625,20.507810592651367,3,gustav
1772894939.3101363,0.939208984375,-0.42041015625,0.4561767578125,21.667478561401367,-1.9531248807907104,12.573241233825684,3,gustav
1772894939.3101363,0.8326416015625,-0.3857421875,0.5135498046875,5.798339366912842,-1.3427733182907104,-6.591796398162842,3,gustav
1772894939.3690398,0.92041015625,-0.43603515625,0.598876953125,-4.2724609375,-16.05224609375,-16.66259765625,3,gustav
1772894939.4268641,0.9013671875,-0.5369873046875,0.614990234375,7.568358898162842,-20.568845748901367,-25.207517623901367,3,gustav
1772894939.43325,0.7442626953125,-0.511962890625,0.6221923828125,5.432128429412842,-6.225585460662842,-18.12744140625,3,gustav
1772894939.4880636,0.908203125,-0.509521484375,0.6173095703125,11.840819358825684,-0.54931640625,-13.793944358825684,3,gustav
1772894939.5510194,1.0306396484375,-0.6419677734375,0.607421875,11.047362327575684,3.723144292831421,-12.573241233825684,3,gustav
1772894939.5510194,1.0838623046875,-0.5670166015625,0.7843017578125,-4.45556640625,1.220703125,-16.9677734375,3,gustav
1772894939.609814,1.111328125,-0.741943359375,0.718017578125,11.596678733825684,-0.6713866591453552,-20.874021530151367,3,gustav
1772894939.6714015,1.138916015625,-0.7431640625,0.7559814453125,8.544921875,-2.13623046875,-15.441893577575684,3,gustav
1772894939.6714015,0.9385986328125,-0.747314453125,0.7227783203125,-6.774901866912842,-6.591796398162842,-3.845214605331421,3,gustav
1772894939.7326846,1.0006103515625,-0.6710205078125,0.68310546875,-5.920409679412842,0.4272460639476776,4.45556640625,3,gustav
1772894939.784994,0.9207763671875,-0.61328125,0.6767578125,2.868652105331421,3.784179449081421,7.812499523162842,3,gustav
1772894939.784994,0.8385009765625,-0.685302734375,0.62841796875,3.601073980331421,10.620116233825684,5.920409679412842,3,gustav
1772894939.852323,0.879638671875,-0.6978759765625,0.610595703125,-5.493163585662842,11.230467796325684,5.065917491912842,3,gustav
1772894939.852323,0.9041748046875,-0.7008056640625,0.6263427734375,-3.479003667831421,7.324218273162842,3.479003667831421,3,gustav
1772894939.9115798,0.9180908203125,-0.646240234375,0.6611328125,-11.657713890075684,3.845214605331421,-1.15966796875,3,gustav
1772894939.970693,0.9273681640625,-0.6644287109375,0.6015625,-0.54931640625,-2.3193359375,-4.69970703125,3,gustav
1772894939.970693,0.91748046875,-0.6397705078125,0.629150390625,-13.122557640075684,-6.408690929412842,-4.2724609375,3,gustav
1772894940.0334013,0.884521484375,-0.6070556640625,0.5760498046875,5.0048828125,-5.676269054412842,-5.798339366912842,3,gustav
1772894940.0916314,0.83056640625,-0.673828125,0.5902099609375,-5.065917491912842,-0.4272460639476776,-4.0283203125,3,gustav
1772894940.0916314,0.7928466796875,-0.59814453125,0.532958984375,-4.7607421875,6.164550304412842,1.4648436307907104,3,gustav
1772894940.1514528,0.8236083984375,-0.681396484375,0.578857421875,-9.1552734375,9.58251953125,5.859374523162842,3,gustav
1772894940.2718859,0.85595703125,-0.576904296875,0.583740234375,-11.352538108825684,13.183592796325684,8.85009765625,3,gustav
1772894940.2718859,0.823486328125,-0.512939453125,0.5679931640625,-5.0048828125,12.451170921325684,8.4228515625,3,gustav
1772894940.2718859,0.823974609375,-0.546630859375,0.537109375,-0.2441406100988388,11.840819358825684,3.967284917831421,3,gustav
1772894940.330685,0.766357421875,-0.5528564453125,0.451171875,-7.629394054412842,8.9111328125,2.25830078125,3,gustav
1772894940.3926072,0.64111328125,-0.4130859375,0.4298095703125,-10.375975608825684,3.051757574081421,-0.0610351525247097,3,gustav
1772894940.3926072,0.5684814453125,-0.4703369140625,0.352783203125,9.27734375,2.807616949081421,-3.601073980331421,3,gustav
1772894940.4506993,0.4984130859375,-0.388671875,0.3302001953125,0.9155272841453552,1.03759765625,-7.202147960662842,3,gustav
1772894940.4506993,0.3385009765625,-0.32568359375,0.22509765625,1.6479490995407104,-1.8920897245407104,-6.591796398162842,3,gustav
1772894940.6308246,0.2642822265625,-0.243896484375,0.219970703125,-5.371093273162842,-4.150390625,-6.652831554412842,3,gustav
1772894940.6308246,0.2989501953125,-0.1497802734375,0.201171875,11.596678733825684,0.54931640625,-11.413573265075684,3,gustav
1772894940.6308246,0.2086181640625,-0.1956787109375,0.1116943359375,22.521970748901367,7.507323741912842,-12.817381858825684,3,gustav
1772894940.6362798,0.4371337890625,-0.251220703125,0.1290283203125,19.71435546875,12.512206077575684,-6.347655773162842,3,gustav
1772894940.692398,0.6458740234375,-0.2164306640625,0.27978515625,1.7700194120407104,0.6103515625,4.69970703125,3,gustav
1772894940.692398,0.9017333984375,-0.224853515625,0.47509765625,-4.5166015625,-2.44140625,2.25830078125,3,gustav
1772894940.752067,0.97509765625,-0.4339599609375,0.5587158203125,0.0,-2.3193359375,-17.51708984375,3,gustav
1772894940.8703127,0.9395751953125,-0.6229248046875,0.5960693359375,8.1787109375,5.737304210662842,-30.212400436401367,3,gustav
1772894940.8703127,0.891357421875,-0.638671875,0.552734375,3.356933355331421,4.94384765625,-18.310546875,3,gustav
1772894940.873187,0.7777099609375,-0.596435546875,0.4283447265625,-12.695311546325684,-5.432128429412842,4.39453125,3,gustav
1772894940.9318104,0.728271484375,-0.51513671875,0.4302978515625,-21.789548873901367,-13.061522483825684,15.686034202575684,3,gustav
1772894940.9328969,0.6436767578125,-0.4375,0.45654296875,-17.88330078125,-14.465331077575684,12.756346702575684,3,gustav
1772894940.990929,0.6787109375,-0.489013671875,0.4375,-8.11767578125,-9.6435546875,1.4648436307907104,3,gustav
1772894941.1131306,0.731689453125,-0.482177734375,0.4859619140625,-3.784179449081421,-9.765625,-6.652831554412842,3,gustav
1772894941.1138008,0.72216796875,-0.366943359375,0.5302734375,-1.4648436307907104,-9.33837890625,0.1831054538488388,3,gustav
1772894941.1138008,0.8150634765625,-0.4573974609375,0.4864501953125,-17.822265625,-13.488768577575684,4.638671875,3,gustav
1772894941.1148064,0.5994873046875,-0.3162841796875,0.468994140625,-7.385253429412842,-2.807616949081421,9.33837890625,3,gustav
1772894941.1725488,0.5205078125,-0.3438720703125,0.3526611328125,-14.221190452575684,4.150390625,13.305663108825684,3,gustav
1772894941.2915606,0.441162109375,-0.247314453125,0.25634765625,-7.263183116912842,3.051757574081421,19.47021484375,3,gustav
1772894941.2915606,0.4154052734375,-0.2391357421875,0.2003173828125,-10.375975608825684,0.6713866591453552,20.874021530151367,3,gustav
1772894941.350503,0.391845703125,-0.2109375,0.31103515625,-6.896972179412842,-2.685546636581421,13.122557640075684,3,gustav
1772894941.350503,0.3740234375,-0.235595703125,0.376220703125,8.23974609375,3.967284917831421,11.901854515075684,3,gustav
1772894941.35446,0.554443359375,-0.34619140625,0.3824462890625,-12.084959983825684,-1.15966796875,23.559568405151367,3,gustav
1772894941.4132288,0.492919921875,-0.25146484375,0.36669921875,-20.935056686401367,-3.479003667831421,-0.3662109076976776,3,gustav
1772894941.472318,0.534423828125,-0.2723388671875,0.46923828125,4.45556640625,12.573241233825684,-13.549803733825684,3,gustav
1772894941.5326076,0.5245361328125,-0.5572509765625,0.3282470703125,28.869626998901367,18.24951171875,-17.02880859375,3,gustav
1772894941.5916343,0.6051025390625,-0.7110595703125,0.42626953125,17.2119140625,19.10400390625,-10.803221702575684,3,gustav
1772894941.5916343,0.7442626953125,-0.6143798828125,0.455810546875,10.498045921325684,16.11328125,-19.22607421875,3,gustav
1772894941.6503353,0.8583984375,-0.645263671875,0.52783203125,25.024412155151367,6.286620616912842,-26.062009811401367,3,gustav
1772894941.6503353,0.9320068359375,-0.6922607421875,0.5533447265625,14.648436546325684,-5.0048828125,-19.83642578125,3,gustav
1772894941.7697127,0.8958740234375,-0.6405029296875,0.542236328125,1.4038084745407104,-16.357421875,-14.221190452575684,3,gustav
1772894941.7697127,0.953857421875,-0.5858154296875,0.612548828125,9.6435546875,-17.76123046875,-19.59228515625,3,gustav
1772894941.7697127,0.9849853515625,-0.6678466796875,0.6405029296875,9.6435546875,-14.038084983825684,-15.869139671325684,3,gustav
1772894941.832801,0.91357421875,-0.72998046875,0.5478515625,-4.39453125,-12.451170921325684,-9.09423828125,3,gustav
1772894941.9512234,0.850830078125,-0.655029296875,0.6820068359375,-6.896972179412842,-3.784179449081421,-15.441893577575684,3,gustav
1772894941.9535475,0.8585205078125,-0.75244140625,0.608154296875,9.82666015625,5.920409679412842,-13.610838890075684,3,gustav
1772894942.011894,0.8887939453125,-0.7967529296875,0.578857421875,0.8544921278953552,1.9531248807907104,-2.929687261581421,3,gustav
1772894942.011894,0.8623046875,-0.6915283203125,0.638671875,-9.1552734375,0.0,1.15966796875,3,gustav
1772894942.1250522,0.8538818359375,-0.693115234375,0.6514892578125,1.220703125,1.220703125,2.44140625,3,gustav
1772894942.1250522,0.8885498046875,-0.760986328125,0.69384765625,-3.967284917831421,2.563476324081421,1.4648436307907104,3,gustav
1772894942.1250522,0.890625,-0.739013671875,0.71630859375,-5.187987804412842,5.065917491912842,-1.03759765625,3,gustav
1772894942.1352644,0.9332275390625,-0.73779296875,0.763671875,1.8920897245407104,3.234863042831421,-6.713866710662842,3,gustav
1772894942.191788,0.949462890625,-0.9173583984375,0.719482421875,-12.268065452575684,0.7324218153953552,-2.746581792831421,3,gustav
1772894942.191788,1.0057373046875,-0.6473388671875,0.7061767578125,-6.835937023162842,-5.249022960662842,-8.4228515625,3,gustav
1772894942.248258,0.9288330078125,-0.8455810546875,0.6849365234375,2.01416015625,-8.6669921875,-10.803221702575684,3,gustav
1772894942.3107204,0.9615478515625,-0.856201171875,0.717041015625,10.070799827575684,-5.371093273162842,-11.535643577575684,3,gustav
1772894942.3107204,0.876708984375,-0.8746337890625,0.6597900390625,0.6103515625,-0.30517578125,-5.676269054412842,3,gustav
1772894942.4925966,0.8402099609375,-0.811767578125,0.6715087890625,7.934569835662842,4.21142578125,9.09423828125,3,gustav
1772894942.4930642,0.852294921875,-0.906005859375,0.5904541015625,5.737304210662842,8.48388671875,19.47021484375,3,gustav
1772894942.4930642,0.888427734375,-0.7520751953125,0.5780029296875,-8.60595703125,13.183592796325684,25.146482467651367,3,gustav
1772894942.494802,0.759521484375,-0.6246337890625,0.5391845703125,-8.97216796875,12.390135765075684,25.329587936401367,3,gustav
1772894942.5526958,0.7109375,-0.5673828125,0.481689453125,-7.263183116912842,16.41845703125,18.310546875,3,gustav
1772894942.612465,0.6341552734375,-0.5352783203125,0.4803466796875,-16.7236328125,15.319823265075684,18.00537109375,3,gustav
1772894942.612465,0.560546875,-0.4803466796875,0.356201171875,-8.056640625,17.27294921875,13.305663108825684,3,gustav
1772894942.6706185,0.6116943359375,-0.3721923828125,0.396484375,-16.357421875,10.559081077575684,14.099120140075684,3,gustav
1772894942.6706185,0.5208740234375,-0.370849609375,0.2938232421875,-13.183592796325684,6.530761241912842,12.451170921325684,3,gustav
1772894942.7249374,0.5335693359375,-0.36181640625,0.262451171875,-6.042479991912842,5.676269054412842,10.314940452575684,3,gustav
1772894942.7906444,0.4871826171875,-0.3056640625,0.291259765625,-12.145995140075684,0.4272460639476776,14.282225608825684,3,gustav
1772894942.7906444,0.4268798828125,-0.293701171875,0.1951904296875,-6.469726085662842,-0.3662109076976776,14.770506858825684,3,gustav
1772894942.8513398,0.380615234375,-0.241455078125,0.1959228515625,-0.1831054538488388,6.835937023162842,5.249022960662842,3,gustav
1772894942.9057846,0.3291015625,-0.281494140625,0.145751953125,7.385253429412842,15.563963890075684,-4.39453125,3,gustav
1772894942.9133031,0.271240234375,-0.2532958984375,0.1441650390625,20.080564498901367,19.71435546875,-12.329100608825684,3,gustav
1772894943.0305972,0.330810546875,-0.24560546875,0.1595458984375,17.39501953125,13.427733421325684,-14.770506858825684,3,gustav
1772894943.0305972,0.5946044921875,-0.418701171875,0.2366943359375,9.09423828125,-5.126952648162842,-8.9111328125,3,gustav
1772894943.0305972,0.81689453125,-0.231201171875,0.4564208984375,1.5258787870407104,-18.85986328125,-8.48388671875,3,gustav
1772894943.1471665,1.0599365234375,-0.435791015625,0.5291748046875,0.9155272841453552,-24.536130905151367,-16.7236328125,3,gustav
1772894943.1471665,1.100830078125,-0.51416015625,0.715087890625,7.751464366912842,-11.413573265075684,-28.381345748901367,3,gustav
1772894943.1471665,0.9613037109375,-0.68701171875,0.6234130859375,-1.6479490995407104,-1.8920897245407104,-9.46044921875,3,gustav
1772894943.2091353,0.826904296875,-0.5753173828125,0.54931640625,-7.690429210662842,3.479003667831421,15.991209983825684,3,gustav
1772894943.2716773,0.7191162109375,-0.5284423828125,0.4874267578125,-5.737304210662842,9.6435546875,21.301267623901367,3,gustav
1772894943.2716773,0.6771240234375,-0.5283203125,0.4000244140625,-4.150390625,6.896972179412842,21.850584030151367,3,gustav
1772894943.3312817,0.6849365234375,-0.4927978515625,0.40283203125,-9.27734375,-0.0610351525247097,17.9443359375,3,gustav
1772894943.3900273,0.7266845703125,-0.4276123046875,0.4136962890625,-4.2724609375,-8.60595703125,10.559081077575684,3,gustav
1772894943.510898,0.7672119140625,-0.4158935546875,0.427001953125,-4.2724609375,-19.47021484375,5.371093273162842,3,gustav
1772894943.510898,0.7596435546875,-0.3846435546875,0.45556640625,-5.126952648162842,-20.996091842651367,0.7934569716453552,3,gustav
1772894943.510898,0.68212890625,-0.3284912109375,0.435546875,-6.652831554412842,-18.6767578125,-1.6479490995407104,3,gustav
1772894943.5666058,0.6038818359375,-0.3154296875,0.39013671875,-2.197265625,-17.4560546875,8.23974609375,3,gustav
1772894943.5732248,0.5504150390625,-0.3035888671875,0.349853515625,-12.573241233825684,-17.27294921875,17.08984375,3,gustav
1772894943.6310964,0.474609375,-0.2957763671875,0.31396484375,-12.023924827575684,-16.9677734375,17.76123046875,3,gustav
1772894943.6310964,0.478271484375,-0.2147216796875,0.3824462890625,-8.544921875,-10.131834983825684,17.578125,3,gustav
1772894943.6920836,0.4794921875,-0.3177490234375,0.2777099609375,-7.324218273162842,-7.141112804412842,15.991209983825684,3,gustav
1772894943.7519495,0.4371337890625,-0.2652587890625,0.387451171875,-9.6435546875,-0.6103515625,17.9443359375,3,gustav
1772894943.7519495,0.53173828125,-0.3443603515625,0.2711181640625,-12.268065452575684,6.774901866912842,20.263669967651367,3,gustav
1772894943.8076375,0.52978515625,-0.3546142578125,0.425537109375,-1.15966796875,11.718749046325684,8.1787109375,3,gustav
1772894943.8710005,0.62548828125,-0.3699951171875,0.4176025390625,12.023924827575684,20.629880905151367,7.324218273162842,3,gustav
1772894943.8710005,0.6680908203125,-0.44873046875,0.43408203125,4.33349609375,8.23974609375,7.568358898162842,3,gustav
1772894943.9283335,0.774658203125,-0.470947265625,0.509521484375,0.8544921278953552,2.685546636581421,7.080077648162842,3,gustav
1772894943.9857101,0.7691650390625,-0.3775634765625,0.60009765625,0.1831054538488388,-2.01416015625,1.4648436307907104,3,gustav
1772894943.9857101,0.7496337890625,-0.4722900390625,0.5791015625,5.737304210662842,-0.7934569716453552,6.347655773162842,3,gustav
1772894944.0522711,0.87939453125,-0.51953125,0.5533447265625,7.751464366912842,9.27734375,2.3193359375,3,gustav
1772894944.1088119,0.9190673828125,-0.43310546875,0.546142578125,0.1831054538488388,8.544921875,2.3193359375,3,gustav
1772894944.1133955,0.9505615234375,-0.3973388671875,0.5645751953125,8.1787109375,7.202147960662842,-8.4228515625,3,gustav
1772894944.2326522,0.9937744140625,-0.5511474609375,0.6070556640625,13.427733421325684,2.44140625,-6.408690929412842,3,gustav
1772894944.2326522,0.9127197265625,-0.5155029296875,0.5830078125,-5.798339366912842,-3.295898199081421,-12.756346702575684,3,gustav
1772894944.2326522,1.003173828125,-0.514404296875,0.6541748046875,6.835937023162842,-4.39453125,-14.831542015075684,3,gustav
1772894944.2920887,0.935302734375,-0.494873046875,0.6153564453125,-2.197265625,-5.126952648162842,-10.498045921325684,3,gustav
1772894944.2920887,0.951171875,-0.4527587890625,0.5968017578125,-5.981444835662842,-3.112792730331421,-9.33837890625,3,gustav
1772894944.3522828,1.0018310546875,-0.4652099609375,0.646484375,13.366698265075684,5.798339366912842,-21.301267623901367,3,gustav
1772894944.4102602,0.9610595703125,-0.589111328125,0.574951171875,10.131834983825684,6.408690929412842,-20.324705123901367,3,gustav
1772894944.4102602,0.8482666015625,-0.6097412109375,0.5675048828125,-5.126952648162842,2.01416015625,-10.253905296325684,3,gustav
1772894944.4714105,1.00146484375,-0.5052490234375,0.702880859375,-4.150390625,6.225585460662842,-8.7890625,3,gustav
1772894944.532778,1.0252685546875,-0.541259765625,0.6453857421875,4.69970703125,2.929687261581421,-6.164550304412842,3,gustav
1772894944.532778,1.059326171875,-0.5888671875,0.72705078125,2.746581792831421,-1.15966796875,-8.11767578125,3,gustav
1772894944.5917735,1.1031494140625,-0.689453125,0.7220458984375,-4.5166015625,-5.0048828125,-4.69970703125,3,gustav
1772894944.6533935,1.020751953125,-0.662353515625,0.7313232421875,-12.084959983825684,-8.30078125,-1.8920897245407104,3,gustav
1772894944.709941,1.078857421875,-0.7271728515625,0.7261962890625,-0.30517578125,-1.5258787870407104,-0.4272460639476776,3,gustav
1772894944.709941,1.052001953125,-0.637939453125,0.7012939453125,-12.084959983825684,2.50244140625,7.446288585662842,3,gustav
1772894944.7685912,1.0128173828125,-0.5860595703125,0.6812744140625,-7.324218273162842,4.08935546875,8.60595703125,3,gustav
1772894944.7685912,0.9439697265625,-0.57421875,0.6873779296875,3.784179449081421,4.57763671875,3.906249761581421,3,gustav
1772894944.8305047,0.8231201171875,-0.6405029296875,0.49365234375,20.324705123901367,-2.01416015625,-1.0986328125,3,gustav
1772894944.887394,0.8951416015625,-0.7257080078125,0.55126953125,1.8920897245407104,-5.249022960662842,0.1220703050494194,3,gustav
1772894944.887394,0.8133544921875,-0.620849609375,0.62646484375,-18.5546875,-12.023924827575684,3.112792730331421,3,gustav
1772894944.9514363,0.792236328125,-0.5565185546875,0.5474853515625,6.225585460662842,-5.310058116912842,-2.685546636581421,3,gustav
1772894945.008703,0.7713623046875,-0.506103515625,0.5048828125,12.084959983825684,-6.286620616912842,-1.4648436307907104,3,gustav
1772894945.008703,0.6971435546875,-0.567626953125,0.35498046875,11.657713890075684,-4.69970703125,-1.15966796875,3,gustav
1772894945.0714967,0.7025146484375,-0.3839111328125,0.457275390625,5.493163585662842,-10.009765625,1.9531248807907104,3,gustav
1772894945.1910725,0.5968017578125,-0.3504638671875,0.4100341796875,3.295898199081421,-7.751464366912842,-4.638671875,3,gustav
1772894945.1910725,0.4619140625,-0.349365234375,0.3936767578125,22.644041061401367,-6.958007335662842,-11.779784202575684,3,gustav
1772894945.1910725,0.4158935546875,-0.322509765625,0.3350830078125,28.503416061401367,2.929687261581421,-16.4794921875,3,gustav
1772894945.1910725,0.3472900390625,-0.3797607421875,0.158935546875,19.59228515625,5.371093273162842,-17.63916015625,3,gustav
1772894945.2507963,0.249267578125,-0.2958984375,0.188232421875,-17.08984375,5.554198741912842,-18.73779296875,3,gustav
1772894945.3719685,0.2989501953125,-0.219970703125,0.13134765625,-20.324705123901367,2.624511480331421,-14.099120140075684,3,gustav
1772894945.3719685,0.4180908203125,-0.183837890625,0.1597900390625,4.69970703125,2.685546636581421,-10.192870140075684,3,gustav
1772894945.3719685,0.501708984375,-0.1715087890625,0.2991943359375,21.362302780151367,-1.9531248807907104,-3.784179449081421,3,gustav
1772894945.4317412,0.7156982421875,-0.4427490234375,0.3885498046875,17.51708984375,-13.488768577575684,3.234863042831421,3,gustav
1772894945.4877985,0.8851318359375,-0.5135498046875,0.6207275390625,-4.0283203125,-6.835937023162842,-6.103515148162842,3,gustav
1772894945.5508404,0.8974609375,-0.6051025390625,0.6259765625,4.8828125,-1.5869139432907104,-11.596678733825684,3,gustav
1772894945.6098468,0.853271484375,-0.5367431640625,0.64404296875,-2.563476324081421,2.990722417831421,-10.253905296325684,3,gustav
1772894945.6098468,0.7357177734375,-0.5369873046875,0.5484619140625,-9.521484375,1.2817381620407104,8.544921875,3,gustav
1772894945.6098468,0.7027587890625,-0.5137939453125,0.485595703125,-11.291502952575684,0.9765624403953552,14.160155296325684,3,gustav
1772894945.6729317,0.6597900390625,-0.4708251953125,0.48779296875,-2.0751953125,7.751464366912842,6.347655773162842,3,gustav
1772894945.729687,0.6649169921875,-0.531494140625,0.48046875,-1.2817381620407104,10.009765625,0.0,3,gustav
1772894945.729687,0.6875,-0.520751953125,0.5,-10.925292015075684,7.263183116912842,-1.4038084745407104,3,gustav
1772894945.7914147,0.7738037109375,-0.44921875,0.51904296875,-7.080077648162842,3.845214605331421,-0.6713866591453552,3,gustav
1772894945.852895,0.7286376953125,-0.4820556640625,0.4620361328125,-14.465331077575684,-6.164550304412842,7.019042491912842,3,gustav
1772894945.8532357,0.667724609375,-0.3609619140625,0.477294921875,-15.808104515075684,-8.056640625,10.253905296325684,3,gustav
1772894945.9134622,0.6083984375,-0.3831787109375,0.4097900390625,-14.465331077575684,-7.385253429412842,15.686034202575684,3,gustav
1772894946.031695,0.516357421875,-0.28857421875,0.34619140625,-13.732909202575684,-5.187987804412842,23.925779342651367,3,gustav
1772894946.031695,0.434326171875,-0.2672119140625,0.3084716796875,-14.221190452575684,-2.990722417831421,28.564451217651367,3,gustav
1772894946.033489,0.42333984375,-0.289306640625,0.304931640625,-12.817381858825684,-0.1831054538488388,26.977537155151367,3,gustav
1772894946.0354838,0.402587890625,-0.2611083984375,0.2894287109375,-13.305663108825684,0.9155272841453552,24.536130905151367,3,gustav
1772894946.093042,0.456787109375,-0.264404296875,0.323486328125,-8.36181640625,1.6479490995407104,23.254392623901367,3,gustav
1772894946.1522298,0.52587890625,-0.34912109375,0.322509765625,1.03759765625,0.2441406100988388,11.840819358825684,3,gustav
1772894946.2054982,0.5390625,-0.26416015625,0.456787109375,6.103515148162842,3.845214605331421,6.591796398162842,3,gustav
1772894946.2133899,0.6580810546875,-0.4808349609375,0.398681640625,-1.8310545682907104,1.15966796875,12.695311546325684,3,gustav
1772894946.2720485,0.6973876953125,-0.3209228515625,0.521728515625,0.6103515625,4.2724609375,4.2724609375,3,gustav
1772894946.3307803,0.7327880859375,-0.468017578125,0.5118408203125,-0.4882812201976776,6.469726085662842,1.4648436307907104,3,gustav
1772894946.5106404,0.807861328125,-0.423583984375,0.513427734375,7.385253429412842,9.27734375,-11.169432640075684,3,gustav
1772894946.5106404,0.7864990234375,-0.4703369140625,0.5576171875,-3.540038824081421,5.371093273162842,-4.94384765625,3,gustav
1772894946.5106404,0.88330078125,-0.3980712890625,0.55615234375,22.094724655151367,7.141112804412842,-8.7890625,3,gustav
1772894946.5142677,0.8824462890625,-0.5823974609375,0.563720703125,18.24951171875,4.5166015625,-2.3193359375,3,gustav
1772894946.5726545,0.8648681640625,-0.551025390625,0.6026611328125,5.065917491912842,-18.49365234375,-16.78466796875,3,gustav
1772894946.6307626,0.8565673828125,-0.5191650390625,0.64501953125,-3.967284917831421,-23.498533248901367,-8.9111328125,3,gustav
1772894946.6307626,0.928466796875,-0.5279541015625,0.6148681640625,-2.3193359375,-10.559081077575684,-10.681151390075684,3,gustav
1772894946.8030844,0.8695068359375,-0.62744140625,0.6177978515625,12.023924827575684,2.685546636581421,-16.845703125,3,gustav
1772894946.8030844,0.95068359375,-0.6197509765625,0.6702880859375,4.39453125,3.479003667831421,-18.9208984375,3,gustav
1772894946.8030844,0.9686279296875,-0.65283203125,0.744140625,9.58251953125,0.1831054538488388,-12.939452171325684,3,gustav
1772894946.8167105,0.892578125,-0.6220703125,0.72412109375,-4.69970703125,2.0751953125,-2.807616949081421,3,gustav
1772894946.9255068,0.938720703125,-0.6297607421875,0.67431640625,-5.554198741912842,6.835937023162842,0.6713866591453552,3,gustav
1772894946.9895816,0.9610595703125,-0.584228515625,0.7119140625,-10.253905296325684,7.385253429412842,5.676269054412842,3,gustav
1772894947.0991528,0.9256591796875,-0.6829833984375,0.6571044921875,1.7089842557907104,9.033203125,4.638671875,3,gustav
1772894947.0991528,0.9241943359375,-0.6829833984375,0.647216796875,-6.042479991912842,4.21142578125,3.234863042831421,3,gustav
1772894947.0991528,0.930908203125,-0.6627197265625,0.6563720703125,-6.530761241912842,-2.197265625,6.896972179412842,3,gustav
1772894947.1163096,0.9652099609375,-0.5650634765625,0.6822509765625,-5.981444835662842,-2.807616949081421,8.7890625,3,gustav
1772894947.1687636,0.9390869140625,-0.583984375,0.6400146484375,2.929687261581421,18.85986328125,2.01416015625,3,gustav
1772894947.2264042,0.92236328125,-0.6318359375,0.5960693359375,-1.8310545682907104,15.563963890075684,1.03759765625,3,gustav
1772894947.2882872,0.90771484375,-0.6160888671875,0.5794677734375,-1.4648436307907104,5.920409679412842,3.417968511581421,3,gustav
1772894947.2882872,0.8802490234375,-0.64111328125,0.5411376953125,-3.173827886581421,-2.38037109375,7.995604991912842,3,gustav
1772894947.3477602,0.8778076171875,-0.6053466796875,0.5306396484375,-1.7089842557907104,-4.21142578125,8.4228515625,3,gustav
1772894947.3477602,0.8001708984375,-0.559814453125,0.49072265625,-5.249022960662842,-3.723144292831421,10.559081077575684,3,gustav
1772894947.410131,0.7802734375,-0.49853515625,0.5211181640625,-6.347655773162842,2.13623046875,7.995604991912842,3,gustav
1772894947.410131,0.8560791015625,-0.483154296875,0.5521240234375,-0.0610351525247097,0.9155272841453552,8.72802734375,3,gustav
1772894947.4728043,0.763916015625,-0.4219970703125,0.4412841796875,-0.54931640625,-0.4272460639476776,10.314940452575684,3,gustav
1772894947.5311332,0.7550048828125,-0.4085693359375,0.4700927734375,-3.234863042831421,-0.1831054538488388,11.047362327575684,3,gustav
1772894947.5311332,0.71240234375,-0.393798828125,0.3990478515625,12.512206077575684,-1.0986328125,8.1787109375,3,gustav
1772894947.5916624,0.5965576171875,-0.3529052734375,0.3641357421875,15.624999046325684,2.746581792831421,0.0,3,gustav
1772894947.6500213,0.5482177734375,-0.3826904296875,0.320556640625,18.37158203125,6.042479991912842,-10.620116233825684,3,gustav
1772894947.6500213,0.45849609375,-0.385009765625,0.2679443359375,23.864744186401367,10.009765625,-19.59228515625,3,gustav
1772894947.714079,0.3983154296875,-0.270263671875,0.31884765625,15.991209983825684,16.6015625,-22.888181686401367,3,gustav
1772894947.772051,0.4141845703125,-0.2967529296875,0.1234130859375,19.287109375,27.587888717651367,-27.770994186401367,3,gustav
1772894947.772051,0.332763671875,-0.339111328125,0.0570068359375,38.02490234375,21.240232467651367,-25.573728561401367,3,gustav
1772894947.8312216,0.38623046875,-0.2088623046875,0.2657470703125,16.17431640625,15.319823265075684,-13.305663108825684,3,gustav
1772894947.8882244,0.5592041015625,-0.4442138671875,0.33642578125,-5.0048828125,-5.249022960662842,4.33349609375,3,gustav
1772894947.8882244,0.6981201171875,-0.2071533203125,0.4483642578125,-15.747069358825684,-16.845703125,-0.9765624403953552,3,gustav
1772894947.9527383,0.76611328125,-0.4058837890625,0.45068359375,-16.29638671875,-29.296873092651367,-5.493163585662842,3,gustav
1772894948.010795,0.9205322265625,-0.4697265625,0.4443359375,-8.30078125,-23.132322311401367,-13.427733421325684,3,gustav
1772894948.010795,0.918212890625,-0.519287109375,0.5185546875,-19.775390625,-10.559081077575684,-11.230467796325684,3,gustav
1772894948.1330874,0.86962890625,-0.5223388671875,0.493408203125,-6.042479991912842,5.676269054412842,-5.737304210662842,3,gustav
1772894948.1330874,0.76611328125,-0.558837890625,0.4658203125,-10.986327171325684,8.11767578125,3.906249761581421,3,gustav
1772894948.1330874,0.777587890625,-0.525146484375,0.4610595703125,-6.530761241912842,6.652831554412842,10.498045921325684,3,gustav
1772894948.1907997,0.7347412109375,-0.5205078125,0.448486328125,-12.207030296325684,4.57763671875,11.779784202575684,3,gustav
1772894948.3031409,0.77734375,-0.4119873046875,0.476318359375,-5.126952648162842,1.5869139432907104,11.108397483825684,3,gustav
1772894948.3031409,0.7694091796875,-0.427490234375,0.446044921875,-5.859374523162842,-2.746581792831421,8.60595703125,3,gustav
1772894948.3031409,0.7841796875,-0.3902587890625,0.4976806640625,-5.0048828125,-6.896972179412842,7.263183116912842,3,gustav
1772894948.369878,0.801025390625,-0.424072265625,0.456787109375,-6.286620616912842,-10.009765625,6.286620616912842,3,gustav
1772894948.369878,0.71240234375,-0.3685302734375,0.4798583984375,-10.681151390075684,-10.009765625,9.46044921875,3,gustav
1772894948.432614,0.70166015625,-0.3499755859375,0.425048828125,-10.192870140075684,-9.09423828125,12.695311546325684,3,gustav
1772894948.4910154,0.5986328125,-0.34765625,0.3721923828125,-12.939452171325684,-7.263183116912842,18.4326171875,3,gustav
1772894948.4910154,0.526611328125,-0.321044921875,0.361572265625,-23.986814498901367,-6.286620616912842,22.583005905151367,3,gustav
1772894948.5492811,0.471923828125,-0.269287109375,0.3253173828125,-20.996091842651367,-0.6713866591453552,25.085447311401367,3,gustav
1772894948.6081555,0.535400390625,-0.312744140625,0.311767578125,-15.441893577575684,-1.8310545682907104,16.9677734375,3,gustav
1772894948.672101,0.495849609375,-0.25732421875,0.3634033203125,-9.82666015625,-1.03759765625,10.437010765075684,3,gustav
1772894948.672101,0.564208984375,-0.3233642578125,0.4036865234375,-5.859374523162842,-1.0986328125,19.83642578125,3,gustav
1772894948.7316897,0.550048828125,-0.2911376953125,0.3375244140625,-8.11767578125,-1.6479490995407104,23.071287155151367,3,gustav
1772894948.7332108,0.5865478515625,-0.281494140625,0.455322265625,-3.601073980331421,1.5258787870407104,23.437498092651367,3,gustav
1772894948.7914608,0.5579833984375,-0.2808837890625,0.4095458984375,-0.7324218153953552,5.432128429412842,16.54052734375,3,gustav
1772894948.8527544,0.6439208984375,-0.3353271484375,0.4033203125,10.192870140075684,8.11767578125,11.230467796325684,3,gustav
1772894948.8527544,0.7003173828125,-0.2684326171875,0.4444580078125,0.0610351525247097,7.934569835662842,-1.8920897245407104,3,gustav
1772894948.9132905,0.727294921875,-0.4969482421875,0.4180908203125,9.033203125,2.929687261581421,-3.173827886581421,3,gustav
1772894949.0328445,0.844970703125,-0.366943359375,0.5631103515625,8.7890625,-0.54931640625,-4.33349609375,3,gustav
1772894949.0332353,0.8155517578125,-0.3671875,0.5172119140625,1.15966796875,-6.347655773162842,-5.187987804412842,3,gustav
1772894949.033543,0.8760986328125,-0.43603515625,0.5343017578125,39.794921875,-8.544921875,-8.97216796875,3,gustav
1772894949.034901,0.9197998046875,-0.5181884765625,0.5423583984375,10.314940452575684,-0.9765624403953552,-18.1884765625,3,gustav
1772894949.0909111,0.90869140625,-0.4658203125,0.6041259765625,20.690916061401367,-3.540038824081421,-15.014647483825684,3,gustav
1772894949.151236,0.9869384765625,-0.558837890625,0.6004638671875,25.939939498901367,-3.295898199081421,-23.010251998901367,3,gustav
1772894949.2137115,0.9329833984375,-0.52783203125,0.65380859375,8.85009765625,-13.977049827575684,-11.474608421325684,3,gustav
1772894949.2137115,1.0186767578125,-0.5518798828125,0.6375732421875,-3.417968511581421,-13.671874046325684,-8.1787109375,3,gustav
1772894949.2695012,0.9627685546875,-0.46240234375,0.6785888671875,-6.042479991912842,-10.070799827575684,-12.756346702575684,3,gustav
1772894949.3915029,0.9708251953125,-0.5938720703125,0.664794921875,1.3427733182907104,-0.9155272841453552,-11.657713890075684,3,gustav
1772894949.3915029,0.935791015625,-0.564697265625,0.6414794921875,-0.1831054538488388,9.6435546875,-11.596678733825684,3,gustav
1772894949.4471982,0.96630859375,-0.54931640625,0.6234130859375,4.0283203125,7.080077648162842,-7.080077648162842,3,gustav
1772894949.4471982,1.34521484375,-0.76904296875,0.7235107421875,-8.6669921875,5.126952648162842,13.183592796325684,3,gustav
1772894949.510834,0.8004150390625,-0.5465087890625,0.6373291015625,-11.596678733825684,4.5166015625,11.230467796325684,3,gustav
1772894949.510834,0.9661865234375,-0.806640625,0.630859375,8.23974609375,5.065917491912842,10.253905296325684,3,gustav
1772894949.5696857,0.96337890625,-0.5196533203125,0.7137451171875,-25.573728561401367,1.3427733182907104,14.831542015075684,3,gustav
1772894949.5696857,1.02490234375,-0.417236328125,0.7393798828125,-7.141112804412842,-1.2817381620407104,-0.9155272841453552,3,gustav
1772894949.6925516,1.076416015625,-0.5380859375,0.6923828125,2.685546636581421,-0.4272460639476776,-11.535643577575684,3,gustav
1772894949.6925516,0.9693603515625,-0.5732421875,0.625,-4.33349609375,-0.9155272841453552,-5.249022960662842,3,gustav
1772894949.6925516,0.920654296875,-0.5433349609375,0.6181640625,-6.225585460662842,-0.6713866591453552,-3.723144292831421,3,gustav
1772894949.7516856,0.861328125,-0.5787353515625,0.5858154296875,0.7934569716453552,3.662109136581421,-3.112792730331421,3,gustav
1772894949.8728373,0.84619140625,-0.5648193359375,0.5396728515625,-4.39453125,4.8828125,0.54931640625,3,gustav
1772894949.873834,0.80029296875,-0.5135498046875,0.5516357421875,-2.624511480331421,2.807616949081421,-1.5258787870407104,3,gustav
1772894949.873834,0.865966796875,-0.503173828125,0.5860595703125,3.723144292831421,5.859374523162842,-7.141112804412842,3,gustav
1772894949.930837,0.9024658203125,-0.5302734375,0.5853271484375,0.4272460639476776,2.44140625,-4.638671875,3,gustav
1772894949.930837,0.9053955078125,-0.5443115234375,0.5517578125,5.737304210662842,1.8310545682907104,-7.141112804412842,3,gustav
1772894949.9928396,0.970458984375,-0.6556396484375,0.6072998046875,3.234863042831421,-7.019042491912842,2.38037109375,3,gustav
1772894950.170511,0.8145751953125,-0.6170654296875,0.5352783203125,-13.183592796325684,-11.352538108825684,12.817381858825684,3,gustav
1772894950.2307088,0.85595703125,-0.4161376953125,0.6121826171875,-20.324705123901367,-7.263183116912842,16.4794921875,3,gustav
1772894950.2307088,0.7403564453125,-0.3758544921875,0.51123046875,-6.652831554412842,3.295898199081421,6.164550304412842,3,gustav
1772894950.2307088,0.5174560546875,-0.4276123046875,0.33642578125,11.962889671325684,10.925292015075684,-13.305663108825684,3,gustav
1772894950.2307088,0.3515625,-0.3260498046875,0.24658203125,4.638671875,4.45556640625,-17.63916015625,3,gustav
1772894950.2358894,0.27197265625,-0.2967529296875,0.17431640625,31.127927780151367,-0.6103515625,-19.47021484375,3,gustav
1772894950.2929997,0.284912109375,-0.258544921875,0.1436767578125,29.968259811401367,-4.33349609375,-20.568845748901367,3,gustav
1772894950.3457384,0.2059326171875,-0.19482421875,0.1007080078125,28.137205123901367,-10.742186546325684,-15.869139671325684,3,gustav
1772894950.408108,0.393310546875,-0.2393798828125,0.2369384765625,26.184080123901367,-16.05224609375,-3.173827886581421,3,gustav
1772894950.415623,0.613037109375,-0.1796875,0.3323974609375,5.981444835662842,-16.4794921875,15.502928733825684,3,gustav
1772894950.4722202,0.8929443359375,-0.3330078125,0.5347900390625,-8.85009765625,-16.90673828125,27.282712936401367,3,gustav
1772894950.4722202,0.9573974609375,-0.2569580078125,0.643310546875,-6.408690929412842,2.746581792831421,-4.638671875,3,gustav
1772894950.53187,0.9710693359375,-0.4476318359375,0.6845703125,16.78466796875,26.367185592651367,-34.0576171875,3,gustav
1772894950.71126,0.8472900390625,-0.534912109375,0.6165771484375,13.854979515075684,23.254392623901367,-24.658201217651367,3,gustav
1772894950.7136812,0.816162109375,-0.5887451171875,0.4722900390625,-10.925292015075684,3.479003667831421,7.812499523162842,3,gustav
1772894950.7136812,0.7525634765625,-0.510498046875,0.4586181640625,-21.911619186401367,-7.873534679412842,26.306150436401367,3,gustav
1772894950.7144995,0.7591552734375,-0.452392578125,0.462646484375,-18.6767578125,-8.11767578125,17.822265625,3,gustav
1772894950.8256564,0.75927734375,-0.3858642578125,0.50537109375,-10.253905296325684,-5.798339366912842,-5.126952648162842,3,gustav
1772894950.8256564,0.7437744140625,-0.389404296875,0.50341796875,-7.629394054412842,-6.652831554412842,-1.9531248807907104,3,gustav
1772894950.8256564,0.7249755859375,-0.3753662109375,0.4852294921875,-10.620116233825684,-5.859374523162842,0.7934569716453552,3,gustav
1772894950.9531066,0.6815185546875,-0.3724365234375,0.435791015625,-5.981444835662842,-1.6479490995407104,1.7700194120407104,3,gustav
1772894950.9531066,0.63037109375,-0.38232421875,0.3785400390625,-20.935056686401367,-2.25830078125,8.48388671875,3,gustav
1772894950.9541633,0.570556640625,-0.318115234375,0.3671875,-34.3017578125,-5.371093273162842,7.751464366912842,3,gustav
1772894951.0086122,0.5272216796875,-0.280029296875,0.3997802734375,-8.97216796875,0.4882812201976776,-1.6479490995407104,3,gustav
1772894951.066688,0.486572265625,-0.389404296875,0.3504638671875,-0.30517578125,1.5869139432907104,1.3427733182907104,3,gustav
1772894951.066688,0.457275390625,-0.40673828125,0.3653564453125,-10.925292015075684,0.6713866591453552,18.12744140625,3,gustav
1772894951.193326,0.5001220703125,-0.3016357421875,0.3297119140625,-10.314940452575684,0.0610351525247097,29.846189498901367,3,gustav
1772894951.193326,0.4560546875,-0.283203125,0.379638671875,-2.50244140625,4.39453125,33.3251953125,3,gustav
1772894951.2511947,0.4915771484375,-0.374267578125,0.370361328125,-0.6103515625,4.33349609375,28.747556686401367,3,gustav
1772894951.2511947,0.510498046875,-0.3206787109375,0.4134521484375,-1.4648436307907104,11.901854515075684,15.930174827575684,3,gustav
1772894951.3124783,0.458740234375,-0.3223876953125,0.396484375,-19.59228515625,12.695311546325684,9.8876953125,3,gustav
1772894951.3135037,0.5758056640625,-0.3592529296875,0.4259033203125,-23.437498092651367,11.474608421325684,2.807616949081421,3,gustav
1772894951.3708215,0.802001953125,-0.3607177734375,0.5439453125,3.723144292831421,-0.0610351525247097,-3.051757574081421,3,gustav
1772894951.4277384,0.774169921875,-0.42529296875,0.41015625,10.253905296325684,-10.253905296325684,-7.812499523162842,3,gustav
1772894951.4277384,0.786376953125,-0.5111083984375,0.5120849609375,15.380858421325684,-17.7001953125,-5.554198741912842,3,gustav
1772894951.4924352,0.874755859375,-0.458984375,0.679443359375,-0.6713866591453552,-7.629394054412842,5.432128429412842,3,gustav
1772894951.5492756,0.9346923828125,-0.451171875,0.598876953125,-7.751464366912842,0.30517578125,18.798828125,3,gustav
1772894951.5492756,1.10693359375,-0.39697265625,0.661865234375,-67.5048828125,11.291502952575684,22.460935592651367,3,gustav
1772894951.6129985,1.031005859375,-0.303466796875,0.601806640625,-53.100582122802734,-8.9111328125,0.8544921278953552,3,gustav
1772894951.669266,0.9580078125,-0.292724609375,0.7969970703125,12.207030296325684,-12.573241233825684,-19.10400390625,3,gustav
1772894951.669266,0.9923095703125,-0.5579833984375,0.7144775390625,9.1552734375,-14.099120140075684,-21.240232467651367,3,gustav
1772894951.7914305,0.9207763671875,-0.47412109375,0.7095947265625,9.09423828125,-7.324218273162842,-15.441893577575684,3,gustav
1772894951.7914305,0.9241943359375,-0.4710693359375,0.7818603515625,7.751464366912842,-3.845214605331421,-12.939452171325684,3,gustav
1772894951.7932224,0.9453125,-0.3533935546875,0.781005859375,-2.3193359375,0.1831054538488388,-14.526366233825684,3,gustav
1772894951.9716315,1.0087890625,-0.43505859375,0.655029296875,18.49365234375,6.408690929412842,-22.827146530151367,3,gustav
1772894951.9716315,1.070556640625,-0.47607421875,0.7728271484375,7.751464366912842,1.0986328125,-17.76123046875,3,gustav
1772894952.0920439,0.76123046875,-0.32568359375,0.5654296875,-37.59765625,-12.573241233825684,2.197265625,3,gustav
1772894952.0920439,0.693115234375,-0.81982421875,0.65283203125,53.100582122802734,7.080077648162842,-0.4272460639476776,3,gustav
1772894952.0920439,1.0299072265625,-0.4178466796875,0.8671875,-19.4091796875,9.46044921875,3.112792730331421,3,gustav
1772894952.0920439,1.0814208984375,-0.3349609375,0.8353271484375,2.38037109375,-0.7934569716453552,-9.3994140625,3,gustav
1772894952.1514776,1.1119384765625,-0.513916015625,0.806884765625,-0.6103515625,-13.916014671325684,4.638671875,3,gustav
1772894952.2103293,1.0330810546875,-0.5614013671875,0.77001953125,-7.873534679412842,-9.70458984375,11.962889671325684,3,gustav
1772894952.2103293,0.9471435546875,-0.4140625,0.7698974609375,-12.329100608825684,-1.4648436307907104,18.37158203125,3,gustav
1772894952.271617,0.8857421875,-0.44677734375,0.6796875,-2.929687261581421,4.45556640625,16.6015625,3,gustav
1772894952.3925004,0.8348388671875,-0.460693359375,0.5755615234375,-0.54931640625,5.126952648162842,13.671874046325684,3,gustav
1772894952.3925004,0.761962890625,-0.4437255859375,0.58935546875,3.173827886581421,-2.3193359375,10.620116233825684,3,gustav
1772894952.3939385,0.739013671875,-0.37353515625,0.6141357421875,0.0610351525247097,-5.615233898162842,3.662109136581421,3,gustav
1772894952.5112035,0.767822265625,-0.412109375,0.61181640625,3.112792730331421,-7.568358898162842,-2.0751953125,3,gustav
1772894952.5112035,0.7911376953125,-0.4237060546875,0.6507568359375,0.9765624403953552,-7.507323741912842,-3.234863042831421,3,gustav
1772894952.5143127,0.7039794921875,-0.4268798828125,0.57861328125,-5.493163585662842,-6.042479991912842,2.746581792831421,3,gustav
1772894952.5696037,0.6644287109375,-0.3411865234375,0.5181884765625,-1.4038084745407104,-4.2724609375,2.563476324081421,3,gustav
1772894952.5696037,0.612060546875,-0.3177490234375,0.492919921875,-4.45556640625,-5.432128429412842,0.9765624403953552,3,gustav
1772894952.629312,0.528076171875,-0.29443359375,0.4013671875,8.6669921875,-2.38037109375,-16.2353515625,3,gustav
1772894952.7512403,0.443359375,-0.2877197265625,0.3079833984375,38.75732421875,-6.103515148162842,-27.282712936401367,3,gustav
1772894952.7512403,0.3331298828125,-0.3289794921875,0.2161865234375,36.19384765625,-14.404295921325684,-28.442380905151367,3,gustav
1772894952.7512403,0.248779296875,-0.3035888671875,0.2025146484375,21.728513717651367,-15.197752952575684,-21.301267623901367,3,gustav
1772894952.7549846,0.2596435546875,-0.23779296875,0.1597900390625,27.587888717651367,-7.690429210662842,-18.00537109375,3,gustav
1772894952.808864,0.3541259765625,-0.2484130859375,0.22998046875,39.1845703125,-7.446288585662842,-1.3427733182907104,3,gustav
1772894952.8691266,0.422607421875,-0.3232421875,0.3819580078125,-4.33349609375,-2.0751953125,19.4091796875,3,gustav
1772894953.1121824,0.5760498046875,-0.1951904296875,0.5880126953125,-28.015134811401367,0.4882812201976776,24.597166061401367,3,gustav
1772894953.1138306,0.7301025390625,-0.2322998046875,0.6280517578125,-7.690429210662842,11.901854515075684,7.629394054412842,3,gustav
1772894953.1138306,0.8646240234375,-0.3280029296875,0.65087890625,18.49365234375,22.094724655151367,-16.7236328125,3,gustav
1772894953.1153414,0.9091796875,-0.487548828125,0.7149658203125,18.12744140625,13.488768577575684,-20.690916061401367,3,gustav
1772894953.1713674,0.7374267578125,-0.521728515625,0.5848388671875,-6.164550304412842,-17.9443359375,8.4228515625,3,gustav
1772894953.2305977,0.7349853515625,-0.4012451171875,0.575439453125,5.493163585662842,-11.840819358825684,8.1787109375,3,gustav
1772894953.2305977,0.6796875,-0.438720703125,0.5877685546875,4.39453125,-6.286620616912842,5.493163585662842,3,gustav
1772894953.2909262,0.7158203125,-0.358642578125,0.582763671875,4.21142578125,2.01416015625,-0.54931640625,3,gustav
1772894953.2909262,0.673095703125,-0.3612060546875,0.5733642578125,-0.0610351525247097,4.7607421875,0.0,3,gustav
1772894953.349532,0.66015625,-0.3643798828125,0.452880859375,-9.82666015625,7.019042491912842,0.4272460639476776,3,gustav
1772894953.4109344,0.5533447265625,-0.28369140625,0.478515625,-15.930174827575684,4.69970703125,0.6103515625,3,gustav
1772894953.469286,0.4820556640625,-0.2911376953125,0.3992919921875,-2.50244140625,5.0048828125,4.150390625,3,gustav
1772894953.4723945,0.4603271484375,-0.3155517578125,0.3748779296875,-7.812499523162842,4.94384765625,8.4228515625,3,gustav
1772894953.5310338,0.5125732421875,-0.3697509765625,0.4085693359375,-12.023924827575684,7.324218273162842,7.385253429412842,3,gustav
1772894953.5332708,0.5067138671875,-0.3424072265625,0.307373046875,-2.807616949081421,8.85009765625,5.310058116912842,3,gustav
1772894953.593014,0.5037841796875,-0.36181640625,0.515625,-27.709959030151367,9.09423828125,10.070799827575684,3,gustav
1772894953.6524165,0.547119140625,-0.314697265625,0.3143310546875,-27.709959030151367,12.939452171325684,15.380858421325684,3,gustav
1772894953.6524165,0.558349609375,-0.3758544921875,0.418701171875,-17.76123046875,13.549803733825684,31.738279342651367,3,gustav
1772894953.7135365,0.51513671875,-0.1859130859375,0.4039306640625,-28.320310592651367,20.507810592651367,34.66796875,3,gustav
1772894953.7699099,0.504638671875,-0.380126953125,0.344970703125,-1.8310545682907104,21.850584030151367,46.264644622802734,3,gustav
1772894953.7699099,0.6441650390625,-0.2540283203125,0.4033203125,-1.220703125,20.874021530151367,31.433103561401367,3,gustav
1772894953.9488394,0.6767578125,-0.37841796875,0.453125,9.3994140625,18.6767578125,17.822265625,3,gustav
1772894953.9488394,0.722412109375,-0.3814697265625,0.4825439453125,2.746581792831421,14.953612327575684,6.530761241912842,3,gustav
1772894953.9488394,0.8648681640625,-0.1358642578125,0.55078125,15.319823265075684,8.30078125,-4.45556640625,3,gustav
1772894953.9488394,0.857421875,-0.467041015625,0.473388671875,11.291502952575684,1.15966796875,-12.390135765075684,3,gustav
1772894954.007661,0.88037109375,-0.0887451171875,0.6053466796875,46.142574310302734,-16.11328125,-32.958984375,3,gustav
1772894954.007661,1.044677734375,-0.7176513671875,0.6263427734375,13.977049827575684,-3.051757574081421,-25.207517623901367,3,gustav
1772894954.0720768,1.0067138671875,-0.3408203125,0.6505126953125,22.216794967651367,-2.3193359375,-30.456541061401367,3,gustav
1772894954.131271,0.98583984375,-0.65087890625,0.7335205078125,20.629880905151367,3.112792730331421,-16.17431640625,3,gustav
1772894954.131271,1.095947265625,-0.611572265625,0.6884765625,8.60595703125,-3.173827886581421,-5.676269054412842,3,gustav
1772894954.1914186,1.09326171875,-0.4925537109375,0.71435546875,9.21630859375,-12.756346702575684,4.2724609375,3,gustav
1772894954.2516189,0.9892578125,-0.5330810546875,0.673583984375,-7.568358898162842,-13.732909202575684,11.352538108825684,3,gustav
1772894954.2516189,0.89990234375,-0.4366455078125,0.622802734375,-3.601073980331421,-8.056640625,2.0751953125,3,gustav
1772894954.3720906,0.8829345703125,-0.4093017578125,0.6129150390625,5.493163585662842,0.8544921278953552,-8.48388671875,3,gustav
1772894954.3720906,0.95947265625,-0.490234375,0.6541748046875,3.417968511581421,1.7089842557907104,-22.521970748901367,3,gustav
1772894954.373187,1.6663818359375,-0.705322265625,0.8404541015625,-19.287109375,-0.3662109076976776,-7.385253429412842,3,gustav
1772894954.4313054,0.9840087890625,-0.736328125,0.68505859375,17.27294921875,7.019042491912842,-8.36181640625,3,gustav
1772894954.4807117,1.216064453125,-0.78564453125,0.79150390625,-7.873534679412842,5.432128429412842,6.469726085662842,3,gustav
1772894954.4807117,1.08740234375,-0.5361328125,0.752197265625,-25.817869186401367,5.493163585662842,11.047362327575684,3,gustav
1772894954.5506957,1.1597900390625,-0.4967041015625,0.777587890625,-3.967284917831421,7.629394054412842,6.286620616912842,3,gustav
1772894954.5506957,1.1407470703125,-0.596435546875,0.709228515625,-2.38037109375,9.033203125,7.812499523162842,3,gustav
1772894954.6138024,1.0269775390625,-0.542724609375,0.6070556640625,-16.6015625,5.798339366912842,13.183592796325684,3,gustav
1772894954.670967,0.924560546875,-0.470458984375,0.57568359375,-8.97216796875,-2.990722417831421,17.578125,3,gustav
1772894954.670967,0.8353271484375,-0.434326171875,0.5555419921875,-5.615233898162842,-3.295898199081421,9.09423828125,3,gustav
1772894954.7275403,0.8084716796875,-0.4761962890625,0.508056640625,-5.310058116912842,-6.652831554412842,2.0751953125,3,gustav
1772894954.9111645,0.8099365234375,-0.4384765625,0.5517578125,-4.7607421875,-6.713866710662842,-5.554198741912842,3,gustav
1772894954.913907,0.83251953125,-0.3828125,0.5113525390625,1.5258787870407104,-4.82177734375,-15.075682640075684,3,gustav
1772894954.913907,0.81005859375,-0.4012451171875,0.5455322265625,11.291502952575684,-6.164550304412842,-19.4091796875,3,gustav
1772894954.9151292,0.8280029296875,-0.4085693359375,0.5015869140625,8.72802734375,-2.868652105331421,-25.390623092651367,3,gustav
1772894954.9712863,0.6505126953125,-0.341552734375,0.3983154296875,34.11865234375,-3.356933355331421,-26.550291061401367,3,gustav
1772894954.9712863,0.6422119140625,-0.465087890625,0.3072509765625,31.311033248901367,-4.8828125,-28.503416061401367,3,gustav
1772894955.091918,0.4923095703125,-0.387451171875,0.2840576171875,1.5258787870407104,-15.624999046325684,-27.160642623901367,3,gustav
1772894955.091918,0.4083251953125,-0.258544921875,0.299560546875,-1.2817381620407104,-21.484373092651367,-26.000974655151367,3,gustav
1772894955.091918,0.32275390625,-0.22021484375,0.2286376953125,-1.9531248807907104,-27.465818405151367,-19.287109375,3,gustav
1772894955.1528704,0.2528076171875,-0.37646484375,0.2376708984375,-9.033203125,-24.169919967651367,-17.88330078125,3,gustav
1772894955.2140782,0.350830078125,-0.24658203125,0.291748046875,16.11328125,-12.084959983825684,-9.6435546875,3,gustav
1772894955.2717679,0.4075927734375,-0.3193359375,0.3836669921875,-0.9765624403953552,8.056640625,-1.15966796875,3,gustav
1772894955.2717679,0.5516357421875,-0.4229736328125,0.300537109375,14.221190452575684,17.39501953125,5.126952648162842,3,gustav
1772894955.3328447,0.56689453125,-0.35546875,0.56591796875,-2.990722417831421,20.080564498901367,0.4882812201976776,3,gustav
1772894955.3328447,0.6832275390625,-0.5570068359375,0.43310546875,5.432128429412842,18.85986328125,-2.50244140625,3,gustav
1772894955.3918161,0.7752685546875,-0.46728515625,0.6005859375,-1.6479490995407104,8.85009765625,-3.906249761581421,3,gustav
1772894955.4469523,0.7972412109375,-0.511474609375,0.5474853515625,0.8544921278953552,-1.3427733182907104,-2.44140625,3,gustav
1772894955.4532874,0.7357177734375,-0.490234375,0.5596923828125,4.57763671875,-3.784179449081421,-5.676269054412842,3,gustav
1772894955.5118089,0.63916015625,-0.5645751953125,0.5755615234375,-19.53125,1.8310545682907104,-6.347655773162842,3,gustav
1772894955.572229,0.627685546875,-0.5269775390625,0.5372314453125,-64.5751953125,17.15087890625,-9.1552734375,3,gustav
1772894955.572229,0.645263671875,-0.4765625,0.7890625,-83.86229705810547,47.363277435302734,-10.803221702575684,3,gustav
1772894955.6916196,0.5667724609375,-0.66650390625,0.459716796875,-76.904296875,30.883787155151367,-9.46044921875,3,gustav
1772894955.6916196,0.7509765625,-0.401611328125,0.28662109375,-48.217769622802734,-12.756346702575684,13.916014671325684,3,gustav
1772894955.6916196,0.9041748046875,-0.2947998046875,0.5555419921875,-4.8828125,-39.73388671875,8.30078125,3,gustav
1772894955.7517312,0.8297119140625,-0.20361328125,0.728271484375,30.456541061401367,-23.864744186401367,-0.7324218153953552,3,gustav
1772894955.8125243,0.55078125,-0.2359619140625,0.58740234375,111.26708221435547,-18.00537109375,-36.376953125,3,gustav
1772894955.8125243,0.6795654296875,-0.64111328125,0.5748291015625,57.617183685302734,-10.437010765075684,-13.427733421325684,3,gustav
1772894955.8694003,0.6614990234375,-0.297607421875,0.347412109375,-25.939939498901367,-14.892577171325684,-21.667478561401367,3,gustav
1772894955.9257174,0.51220703125,-0.584228515625,0.4110107421875,13.305663108825684,-16.29638671875,-4.39453125,3,gustav
1772894955.9257174,0.4117431640625,-0.31103515625,0.4112548828125,0.0610351525247097,-16.11328125,2.13623046875,3,gustav
1772894955.993873,0.415771484375,-0.3021240234375,0.46630859375,2.929687261581421,-7.141112804412842,9.3994140625,3,gustav
1772894956.047371,0.46728515625,-0.36962890625,0.3616943359375,-4.94384765625,-0.7934569716453552,19.34814453125,3,gustav
1772894956.047371,0.5389404296875,-0.32666015625,0.5020751953125,-6.713866710662842,5.615233898162842,32.2265625,3,gustav
1772894956.106981,0.5819091796875,-0.453369140625,0.4468994140625,-4.150390625,10.620116233825684,49.682613372802734,3,gustav
1772894956.106981,0.526611328125,-0.420654296875,0.3719482421875,-27.954099655151367,16.6015625,63.598628997802734,3,gustav
1772894956.1709301,0.4967041015625,-0.27783203125,0.496826171875,-14.709471702575684,32.1044921875,63.659664154052734,3,gustav
1772894956.3518028,0.53515625,-0.344970703125,0.327880859375,-22.888181686401367,30.456541061401367,55.969234466552734,3,gustav
1772894956.3518028,0.545166015625,-0.2530517578125,0.309814453125,2.0751953125,23.071287155151367,51.330562591552734,3,gustav
1772894956.3518028,0.5604248046875,-0.2178955078125,0.412841796875,-2.13623046875,20.324705123901367,36.4990234375,3,gustav
1772894956.3518028,0.587890625,-0.3726806640625,0.2813720703125,24.353025436401367,10.070799827575684,28.076169967651367,3,gustav
1772894956.4139252,0.87451171875,-0.4781494140625,0.458251953125,2.990722417831421,6.225585460662842,-1.8920897245407104,3,gustav
1772894956.470981,0.909423828125,-0.376708984375,0.5640869140625,21.423337936401367,2.563476324081421,-16.6015625,3,gustav
1772894956.470981,0.9686279296875,-0.4683837890625,0.6470947265625,19.53125,-3.295898199081421,-20.446775436401367,3,gustav
1772894956.5322313,1.0294189453125,-0.4520263671875,0.7274169921875,16.4794921875,-8.7890625,-26.428220748901367,3,gustav
1772894956.5909536,1.0223388671875,-0.534912109375,0.7412109375,27.099607467651367,-14.770506858825684,-30.456541061401367,3,gustav
1772894956.5909536,1.0496826171875,-0.739501953125,0.6251220703125,18.1884765625,-15.075682640075684,-15.319823265075684,3,gustav
1772894956.6514385,1.1778564453125,-0.4951171875,0.827392578125,-3.967284917831421,-19.53125,-3.295898199081421,3,gustav
1772894956.710942,0.9539794921875,-0.4993896484375,0.7901611328125,-10.314940452575684,-11.108397483825684,2.197265625,3,gustav
1772894956.710942,0.900390625,-0.5208740234375,0.63427734375,13.732909202575684,3.173827886581421,-3.540038824081421,3,gustav
1772894956.8930693,1.312255859375,-0.5975341796875,0.7471923828125,-10.864256858825684,2.01416015625,-3.784179449081421,3,gustav
1772894956.8930693,0.8660888671875,-0.6510009765625,0.8280029296875,-61.889644622802734,-5.371093273162842,8.23974609375,3,gustav
1772894956.9502807,1.0244140625,-0.790283203125,0.5836181640625,66.95556640625,16.05224609375,-29.113767623901367,3,gustav
1772894956.9502807,1.2840576171875,-0.7705078125,0.8489990234375,-1.3427733182907104,18.310546875,-25.146482467651367,3,gustav
1772894956.953144,1.2978515625,-0.6495361328125,0.9327392578125,-36.31591796875,4.82177734375,4.2724609375,3,gustav
1772894956.9543376,1.16064453125,-0.4085693359375,0.788330078125,-12.695311546325684,-4.39453125,2.13623046875,3,gustav
1772894957.0112677,1.13818359375,-0.5765380859375,0.7711181640625,-7.202147960662842,2.624511480331421,6.652831554412842,3,gustav
1772894957.0701563,0.9854736328125,-0.6219482421875,0.5948486328125,-30.883787155151367,9.70458984375,11.047362327575684,3,gustav
1772894957.0701563,0.8734130859375,-0.5302734375,0.6038818359375,-22.216794967651367,10.925292015075684,11.352538108825684,3,gustav
1772894957.1919587,0.77880859375,-0.4705810546875,0.583251953125,-10.498045921325684,8.4228515625,6.713866710662842,3,gustav
1772894957.1919587,0.775390625,-0.5001220703125,0.496337890625,5.187987804412842,4.45556640625,3.662109136581421,3,gustav
1772894957.1946204,0.8023681640625,-0.462158203125,0.5745849609375,-1.0986328125,-4.21142578125,2.50244140625,3,gustav
1772894957.2512953,0.7755126953125,-0.4403076171875,0.5084228515625,-0.30517578125,-10.131834983825684,3.051757574081421,3,gustav
1772894957.2512953,0.7420654296875,-0.3211669921875,0.5313720703125,2.3193359375,-8.4228515625,-2.38037109375,3,gustav
1772894957.308511,0.6497802734375,-0.32080078125,0.439697265625,11.779784202575684,-2.44140625,-8.30078125,3,gustav
1772894957.366822,0.6175537109375,-0.318359375,0.3939208984375,4.57763671875,-1.4648436307907104,-13.061522483825684,3,gustav
1772894957.4309485,0.5546875,-0.352783203125,0.349853515625,-23.132322311401367,-6.286620616912842,-17.9443359375,3,gustav
1772894957.4309485,0.4681396484375,-0.17724609375,0.3883056640625,-30.517576217651367,-10.864256858825684,-23.498533248901367,3,gustav
1772894957.5511045,0.4515380859375,-0.2225341796875,0.2584228515625,-14.282225608825684,-19.53125,-35.82763671875,3,gustav
1772894957.5511045,0.451904296875,-0.3182373046875,0.328857421875,0.1831054538488388,-21.972654342651367,-37.65869140625,3,gustav
1772894957.5534682,0.375,-0.232666015625,0.223876953125,-7.568358898162842,-18.798828125,-29.357908248901367,3,gustav
1772894957.6109834,0.2364501953125,-0.3436279296875,0.0362548828125,7.690429210662842,-29.174802780151367,-14.709471702575684,3,gustav
1772894957.668154,0.263427734375,-0.3367919921875,0.3612060546875,26.977537155151367,-14.160155296325684,-8.056640625,3,gustav
1772894957.668154,0.3516845703125,-0.38525390625,0.494873046875,22.766111373901367,-13.366698265075684,6.469726085662842,3,gustav
1772894957.7284653,0.5472412109375,-0.340576171875,0.5926513671875,15.258788108825684,-9.27734375,21.972654342651367,3,gustav
1772894957.7284653,0.8262939453125,-0.3206787109375,0.6201171875,25.268552780151367,0.6713866591453552,8.30078125,3,gustav
1772894957.8473897,0.8173828125,-0.48388671875,0.67041015625,26.062009811401367,6.225585460662842,-0.7324218153953552,3,gustav
1772894957.8473897,0.873291015625,-0.40087890625,0.7076416015625,8.48388671875,13.671874046325684,-10.070799827575684,3,gustav
1772894957.8544705,0.8037109375,-0.475830078125,0.6375732421875,9.1552734375,11.779784202575684,-5.187987804412842,3,gustav
1772894957.9716105,0.770751953125,-0.481689453125,0.5924072265625,3.173827886581421,3.906249761581421,1.03759765625,3,gustav
1772894957.9716105,0.6907958984375,-0.505126953125,0.5638427734375,-3.479003667831421,1.220703125,5.371093273162842,3,gustav
1772894958.0307555,0.687744140625,-0.4879150390625,0.5628662109375,-3.479003667831421,-1.220703125,7.324218273162842,3,gustav
1772894958.0907476,0.675048828125,-0.4556884765625,0.5614013671875,-5.065917491912842,1.220703125,3.723144292831421,3,gustav
1772894958.0907476,0.6502685546875,-0.42236328125,0.579345703125,1.2817381620407104,-0.0610351525247097,2.868652105331421,3,gustav
1772894958.0932612,0.736572265625,-0.4569091796875,0.5859375,-1.8310545682907104,1.0986328125,3.662109136581421,3,gustav
1772894958.1521516,0.757568359375,-0.404541015625,0.5718994140625,-6.347655773162842,-2.929687261581421,7.690429210662842,3,gustav
1772894958.2095542,0.7076416015625,-0.3409423828125,0.563720703125,-4.638671875,-3.906249761581421,9.82666015625,3,gustav
1772894958.2095542,0.6397705078125,-0.3529052734375,0.5274658203125,-14.465331077575684,-0.9765624403953552,15.380858421325684,3,gustav
1772894958.2683375,0.530029296875,-0.324951171875,0.4334716796875,-16.29638671875,2.44140625,26.733396530151367,3,gustav
1772894958.3322518,0.50830078125,-0.289306640625,0.4129638671875,-23.315427780151367,6.408690929412842,32.65380859375,3,gustav
1772894958.3333795,0.3785400390625,-0.2581787109375,0.3504638671875,-18.9208984375,12.634276390075684,30.944822311401367,3,gustav
1772894958.3928778,0.3824462890625,-0.189697265625,0.3077392578125,3.784179449081421,9.46044921875,28.259275436401367,3,gustav
1772894958.5123677,0.377685546875,-0.33203125,0.302001953125,-3.723144292831421,6.713866710662842,33.26416015625,3,gustav
1772894958.5139287,0.460693359375,-0.29296875,0.31640625,3.051757574081421,3.784179449081421,34.912109375,3,gustav
1772894958.5694728,0.478271484375,-0.302001953125,0.3624267578125,-7.202147960662842,4.39453125,32.3486328125,3,gustav
1772894958.5694728,0.6002197265625,-0.2857666015625,0.446044921875,6.713866710662842,8.72802734375,30.456541061401367,3,gustav
1772894958.5694728,0.6158447265625,-0.293212890625,0.3665771484375,-13.427733421325684,10.314940452575684,24.780271530151367,3,gustav
1772894958.6333258,0.7181396484375,-0.2239990234375,0.552734375,-1.6479490995407104,14.404295921325684,22.155759811401367,3,gustav
1772894958.6910033,0.8326416015625,-0.3497314453125,0.517578125,-3.784179449081421,14.953612327575684,4.5166015625,3,gustav
1772894958.6910033,0.846435546875,-0.29345703125,0.5576171875,-0.4882812201976776,11.962889671325684,-2.929687261581421,3,gustav
1772894958.870582,0.919921875,-0.2822265625,0.67919921875,13.122557640075684,1.9531248807907104,-8.60595703125,3,gustav
1772894958.870582,0.944580078125,-0.425537109375,0.5782470703125,16.54052734375,-3.662109136581421,-11.291502952575684,3,gustav
1772894958.8732426,0.947998046875,-0.4886474609375,0.7366943359375,-1.8920897245407104,-16.2353515625,-5.798339366912842,3,gustav
1772894958.9279685,0.942626953125,-0.30908203125,0.621826171875,-1.7700194120407104,-18.85986328125,-8.97216796875,3,gustav
1772894958.9279685,0.96240234375,-0.3544921875,0.7425537109375,25.878904342651367,-12.756346702575684,-13.305663108825684,3,gustav
1772894958.9279685,0.965087890625,-0.394775390625,0.64501953125,21.789548873901367,-3.906249761581421,-17.822265625,3,gustav
1772894958.9909697,0.948974609375,-0.5384521484375,0.642333984375,11.718749046325684,1.5869139432907104,-21.667478561401367,3,gustav
1772894958.9909697,0.9757080078125,-0.4735107421875,0.69921875,8.30078125,0.0,-16.66259765625,3,gustav
1772894959.0514672,0.9844970703125,-0.41259765625,0.687255859375,-4.8828125,-1.3427733182907104,-11.169432640075684,3,gustav
1772894959.1077876,0.9407958984375,-0.34814453125,0.6533203125,-2.13623046875,1.5869139432907104,-15.075682640075684,3,gustav
1772894959.1077876,0.997314453125,-0.3883056640625,0.7266845703125,12.512206077575684,4.21142578125,-13.488768577575684,3,gustav
1772894959.1734252,1.754150390625,-0.4449462890625,1.0924072265625,-8.60595703125,-15.502928733825684,-11.596678733825684,3,gustav
1772894959.469707,0.72314453125,-0.3419189453125,0.6031494140625,-4.82177734375,-5.371093273162842,-14.404295921325684,3,gustav
1772894959.4722793,1.080078125,-0.9478759765625,0.8214111328125,32.3486328125,3.540038824081421,-17.15087890625,3,gustav
1772894959.4726074,1.1248779296875,-0.6473388671875,0.7401123046875,-20.690916061401367,3.173827886581421,5.432128429412842,3,gustav
1772894959.4726074,1.0404052734375,-0.458740234375,0.927978515625,-28.686521530151367,0.0,6.347655773162842,3,gustav
1772894959.5931256,0.9581298828125,-0.6005859375,0.6937255859375,-21.118162155151367,0.8544921278953552,24.719236373901367,3,gustav
1772894959.6513326,0.81005859375,-0.408203125,0.6348876953125,-8.544921875,-1.4038084745407104,17.88330078125,3,gustav
1772894959.6513326,0.8062744140625,-0.4168701171875,0.5765380859375,0.2441406100988388,2.563476324081421,2.197265625,3,gustav
1772894959.6513326,0.751708984375,-0.4398193359375,0.5518798828125,4.57763671875,-4.150390625,0.54931640625,3,gustav
1772894959.655664,0.760009765625,-0.3385009765625,0.533935546875,-2.807616949081421,-0.54931640625,-4.94384765625,3,gustav
1772894959.710979,0.7059326171875,-0.279296875,0.5694580078125,1.2817381620407104,-4.0283203125,-11.718749046325684,3,gustav
1772894959.710979,0.681640625,-0.3502197265625,0.510986328125,26.123044967651367,1.7089842557907104,-18.98193359375,3,gustav
1772894959.7735019,0.62255859375,-0.4105224609375,0.39990234375,14.343260765075684,5.981444835662842,-26.306150436401367,3,gustav
1772894959.8309703,0.57080078125,-0.29833984375,0.396240234375,16.6015625,8.4228515625,-27.832029342651367,3,gustav
1772894959.8309703,0.457275390625,-0.3212890625,0.351318359375,10.620116233825684,11.840819358825684,-29.602048873901367,3,gustav
1772894959.8895886,0.3731689453125,-0.3514404296875,0.277099609375,10.559081077575684,14.282225608825684,-32.16552734375,3,gustav
1772894959.9502735,0.2845458984375,-0.300048828125,0.2198486328125,13.061522483825684,16.6015625,-32.3486328125,3,gustav
1772894959.9502735,0.28466796875,-0.2908935546875,0.1925048828125,-11.657713890075684,16.54052734375,-36.80419921875,3,gustav
1772894960.0720456,0.373046875,-0.267333984375,0.0877685546875,9.521484375,11.718749046325684,-43.395992279052734,3,gustav
1772894960.0720456,0.362548828125,-0.2630615234375,0.2576904296875,0.3662109076976776,-1.5869139432907104,-29.846189498901367,3,gustav
1772894960.2511442,0.5672607421875,-0.1473388671875,0.44970703125,8.97216796875,-2.990722417831421,-21.301267623901367,3,gustav
1772894960.2511442,0.7752685546875,-0.4083251953125,0.4677734375,11.779784202575684,-13.488768577575684,-12.817381858825684,3,gustav
1772894960.2511442,0.9212646484375,-0.517822265625,0.6141357421875,10.681151390075684,-13.305663108825684,-17.08984375,3,gustav
1772894960.2511442,0.9189453125,-0.5987548828125,0.616943359375,19.04296875,-4.150390625,-25.756834030151367,3,gustav
1772894960.312211,0.811279296875,-0.6429443359375,0.509521484375,14.160155296325684,0.2441406100988388,1.4648436307907104,3,gustav
1772894960.312211,0.767578125,-0.5938720703125,0.485107421875,-5.310058116912842,-6.591796398162842,16.11328125,3,gustav
1772894960.372779,0.772705078125,-0.5709228515625,0.46337890625,-14.038084983825684,-11.901854515075684,22.155759811401367,3,gustav
1772894960.4332542,0.7581787109375,-0.5086669921875,0.4967041015625,-9.09423828125,-16.90673828125,21.850584030151367,3,gustav
1772894960.5483181,0.7310791015625,-0.5076904296875,0.5672607421875,-19.287109375,-17.63916015625,21.667478561401367,3,gustav
1772894960.5483181,0.7288818359375,-0.460693359375,0.5125732421875,-6.347655773162842,-20.507810592651367,26.062009811401367,3,gustav
1772894960.5483181,0.68359375,-0.531982421875,0.5784912109375,-16.845703125,-17.27294921875,33.26416015625,3,gustav
1772894960.5483181,0.70166015625,-0.4478759765625,0.4588623046875,-24.169919967651367,-11.840819358825684,43.579097747802734,3,gustav
1772894960.7920501,0.6517333984375,-0.4427490234375,0.5089111328125,-32.40966796875,-6.286620616912842,42.602535247802734,3,gustav
1772894960.7920501,0.5704345703125,-0.227294921875,0.443115234375,-44.250484466552734,4.69970703125,44.677730560302734,3,gustav
1772894960.7935448,0.4693603515625,-0.1513671875,0.302490234375,-31.738279342651367,6.713866710662842,39.794921875,3,gustav
1772894960.794322,0.412841796875,-0.22021484375,0.3260498046875,-37.4755859375,2.868652105331421,41.137691497802734,3,gustav
1772894960.852806,0.31982421875,-0.2503662109375,0.2615966796875,-8.36181640625,-1.9531248807907104,15.747069358825684,3,gustav
1772894960.852806,0.327880859375,-0.3035888671875,0.3006591796875,-0.1831054538488388,-5.249022960662842,15.197752952575684,3,gustav
1772894960.9140503,0.3858642578125,-0.3170166015625,0.331298828125,15.136717796325684,1.3427733182907104,0.54931640625,3,gustav
1772894960.9696317,0.526611328125,-0.3792724609375,0.4857177734375,26.245115280151367,10.559081077575684,-4.0283203125,3,gustav
1772894960.9696317,0.6270751953125,-0.4146728515625,0.469482421875,12.878417015075684,8.544921875,-13.732909202575684,3,gustav
1772894961.0289335,0.6551513671875,-0.4124755859375,0.5582275390625,37.841796875,13.610838890075684,-11.962889671325684,3,gustav
1772894961.1488008,0.9132080078125,-0.4361572265625,0.639892578125,18.06640625,12.939452171325684,-10.620116233825684,3,gustav
1772894961.153647,0.9105224609375,-0.3541259765625,0.624755859375,29.846189498901367,10.437010765075684,-2.13623046875,3,gustav
1772894961.153647,1.0548095703125,-0.354736328125,0.765869140625,23.132322311401367,6.225585460662842,-8.544921875,3,gustav
1772894961.2111285,1.0972900390625,-0.4063720703125,0.6529541015625,19.34814453125,6.958007335662842,-4.08935546875,3,gustav
1772894961.2111285,1.0738525390625,-0.451171875,0.76171875,8.11767578125,-0.4882812201976776,-4.0283203125,3,gustav
1772894961.2722716,1.1402587890625,-0.4814453125,0.6849365234375,17.9443359375,3.540038824081421,-4.08935546875,3,gustav
1772894961.3278182,1.02001953125,-0.500244140625,0.6878662109375,-6.652831554412842,-2.746581792831421,-3.417968511581421,3,gustav
1772894961.3278182,0.97021484375,-0.46875,0.745361328125,-7.385253429412842,-0.7324218153953552,-2.563476324081421,3,gustav
1772894961.3898084,0.9439697265625,-0.451416015625,0.6627197265625,-11.840819358825684,-0.1831054538488388,-3.234863042831421,3,gustav
1772894961.4514885,0.8056640625,-0.484375,0.6064453125,-15.563963890075684,-5.615233898162842,-0.9155272841453552,3,gustav
1772894961.4514885,0.8267822265625,-0.4603271484375,0.53955078125,0.7324218153953552,-2.624511480331421,-10.681151390075684,3,gustav
1772894961.5118833,1.3638916015625,-0.6485595703125,0.7650146484375,-3.845214605331421,-5.126952648162842,-16.66259765625,3,gustav
1772894961.5726218,0.864013671875,-0.22216796875,0.7568359375,-54.931636810302734,-16.4794921875,18.06640625,3,gustav
1772894961.5726218,0.86279296875,-0.68798828125,0.474853515625,54.809566497802734,13.610838890075684,-7.629394054412842,3,gustav
1772894961.6318884,1.0965576171875,-0.6971435546875,0.639404296875,20.080564498901367,4.33349609375,-12.878417015075684,3,gustav
1772894961.6906488,1.1619873046875,-0.4957275390625,0.896728515625,-34.1796875,-0.3662109076976776,11.474608421325684,3,gustav
1772894961.6906488,1.076416015625,-0.2427978515625,0.9215087890625,-9.33837890625,-5.432128429412842,-1.2817381620407104,3,gustav
1772894961.7501793,1.0516357421875,-0.3673095703125,0.8272705078125,20.568845748901367,-2.990722417831421,-13.916014671325684,3,gustav
1772894961.8709583,1.052490234375,-0.6492919921875,0.6907958984375,9.521484375,-2.868652105331421,-7.080077648162842,3,gustav
1772894961.8709583,1.0111083984375,-0.637939453125,0.6771240234375,-19.1650390625,-1.15966796875,6.652831554412842,3,gustav
1772894961.8709583,0.8717041015625,-0.3902587890625,0.6700439453125,-21.789548873901367,2.50244140625,10.925292015075684,3,gustav
1772894961.932161,0.828369140625,-0.44091796875,0.6197509765625,-7.934569835662842,7.263183116912842,5.371093273162842,3,gustav
1772894961.9331043,0.816162109375,-0.4639892578125,0.620849609375,-2.990722417831421,0.9155272841453552,6.469726085662842,3,gustav
1772894961.992898,0.816162109375,-0.435302734375,0.610595703125,-2.685546636581421,-0.6103515625,4.150390625,3,gustav
1772894962.0520716,0.8138427734375,-0.449951171875,0.5289306640625,-3.356933355331421,-6.713866710662842,8.056640625,3,gustav
1772894962.0520716,0.867919921875,-0.3565673828125,0.6064453125,-11.962889671325684,0.1220703050494194,2.01416015625,3,gustav
1772894962.1729116,0.812255859375,-0.40869140625,0.5908203125,-2.0751953125,0.6103515625,7.324218273162842,3,gustav
1772894962.1729116,0.77001953125,-0.356201171875,0.5008544921875,3.967284917831421,4.8828125,-2.624511480331421,3,gustav
1772894962.1729116,0.6800537109375,-0.4141845703125,0.4154052734375,9.82666015625,4.33349609375,-6.652831554412842,3,gustav
1772894962.2923539,0.5650634765625,-0.3896484375,0.41064453125,-6.286620616912842,1.15966796875,-5.981444835662842,3,gustav
1772894962.2934673,0.56884765625,-0.387939453125,0.3470458984375,-12.756346702575684,-1.2817381620407104,0.6103515625,3,gustav
1772894962.2934673,0.499755859375,-0.2320556640625,0.386474609375,-18.98193359375,-9.82666015625,13.854979515075684,3,gustav
1772894962.3461215,0.4227294921875,-0.0726318359375,0.417724609375,7.690429210662842,-3.906249761581421,15.563963890075684,3,gustav
1772894962.3461215,0.3348388671875,-0.2318115234375,0.273193359375,19.95849609375,2.25830078125,12.939452171325684,3,gustav
1772894962.4124691,0.345458984375,-0.25537109375,0.22265625,22.644041061401367,12.390135765075684,8.11767578125,3,gustav
1772894962.4677331,0.3785400390625,-0.3165283203125,0.159912109375,17.4560546875,14.648436546325684,7.507323741912842,3,gustav
1772894962.4677331,0.3883056640625,-0.2423095703125,0.246337890625,-10.192870140075684,10.314940452575684,7.934569835662842,3,gustav
1772894962.592642,0.53857421875,-0.17138671875,0.3363037109375,0.3662109076976776,12.939452171325684,-1.3427733182907104,3,gustav
1772894962.5933964,0.7254638671875,-0.2269287109375,0.4998779296875,-0.7324218153953552,9.8876953125,-13.122557640075684,3,gustav
1772894962.5933964,0.9521484375,-0.20849609375,0.6090087890625,-25.390623092651367,8.85009765625,-13.549803733825684,3,gustav
1772894962.649009,1.0255126953125,-0.2054443359375,0.641357421875,2.197265625,6.408690929412842,-22.521970748901367,3,gustav
1772894962.707402,0.954833984375,-0.3916015625,0.5831298828125,10.681151390075684,3.601073980331421,-17.02880859375,3,gustav
1772894962.707402,0.9432373046875,-0.4957275390625,0.5362548828125,0.30517578125,2.38037109375,-3.540038824081421,3,gustav
1772894962.8923512,0.8631591796875,-0.4068603515625,0.54638671875,-17.9443359375,-7.202147960662842,15.136717796325684,3,gustav
1772894962.8923512,0.8065185546875,-0.309326171875,0.5313720703125,-14.831542015075684,-9.8876953125,20.996091842651367,3,gustav
1772894962.8923512,0.800537109375,-0.2916259765625,0.4969482421875,-12.695311546325684,-11.169432640075684,19.53125,3,gustav
1772894962.8923512,0.74169921875,-0.1973876953125,0.4715576171875,-16.11328125,-13.488768577575684,13.122557640075684,3,gustav
1772894962.9504066,0.718994140625,-0.107421875,0.4642333984375,-11.291502952575684,-13.183592796325684,5.187987804412842,3,gustav
1772894962.9531007,0.63134765625,-0.115966796875,0.400146484375,-6.347655773162842,-16.78466796875,2.44140625,3,gustav
1772894963.0120838,0.5592041015625,-0.1689453125,0.3934326171875,-9.46044921875,-17.51708984375,9.46044921875,3,gustav
1772894963.066759,0.45458984375,-0.18408203125,0.3150634765625,-18.5546875,-15.808104515075684,12.817381858825684,3,gustav
1772894963.131656,0.40087890625,-0.17724609375,0.3634033203125,-14.160155296325684,-9.70458984375,16.05224609375,3,gustav
1772894963.131656,0.4163818359375,-0.1846923828125,0.3363037109375,-10.559081077575684,4.5166015625,26.489255905151367,3,gustav
1772894963.192709,0.458251953125,-0.2152099609375,0.357177734375,-5.737304210662842,16.6015625,29.602048873901367,3,gustav
1772894963.192709,0.548095703125,-0.1787109375,0.327392578125,-1.8920897245407104,26.489255905151367,16.78466796875,3,gustav
1772894963.3129942,0.619140625,-0.294921875,0.443359375,-1.8310545682907104,23.864744186401367,13.916014671325684,3,gustav
1772894963.3129942,0.6737060546875,-0.1513671875,0.4742431640625,-8.72802734375,23.620603561401367,10.925292015075684,3,gustav
1772894963.3129942,0.796630859375,-0.2049560546875,0.54248046875,2.868652105331421,13.671874046325684,7.568358898162842,3,gustav
1772894963.369846,0.7958984375,-0.298583984375,0.5106201171875,0.8544921278953552,5.493163585662842,10.925292015075684,3,gustav
1772894963.369846,0.90185546875,-0.1925048828125,0.592529296875,2.0751953125,-5.0048828125,-1.5869139432907104,3,gustav
1772894963.4330063,0.8800048828125,-0.256103515625,0.5986328125,6.408690929412842,-16.357421875,-11.352538108825684,3,gustav
1772894963.6039972,0.8818359375,-0.2271728515625,0.5538330078125,8.4228515625,-21.240232467651367,-13.977049827575684,3,gustav
1772894963.6039972,0.8392333984375,-0.2271728515625,0.60205078125,6.469726085662842,-22.277830123901367,-18.00537109375,3,gustav
1772894963.6039972,0.7415771484375,-0.2542724609375,0.5386962890625,9.521484375,-19.22607421875,-16.90673828125,3,gustav
1772894963.6142256,0.820556640625,-0.3123779296875,0.589599609375,18.49365234375,-15.686034202575684,-6.774901866912842,3,gustav
1772894963.7263076,0.8873291015625,-0.33544921875,0.7213134765625,27.526853561401367,-5.920409679412842,-21.728513717651367,3,gustav
1772894963.7263076,1.0028076171875,-0.374267578125,0.8126220703125,4.94384765625,-7.995604991912842,-18.1884765625,3,gustav
1772894963.7263076,0.9954833984375,-0.379150390625,0.719482421875,6.591796398162842,-2.990722417831421,-15.808104515075684,3,gustav
1772894963.7926402,1.0762939453125,-0.42529296875,0.8316650390625,6.164550304412842,1.4648436307907104,-15.808104515075684,3,gustav
1772894963.8510466,0.9395751953125,-0.3612060546875,0.7569580078125,-3.967284917831421,3.295898199081421,-6.652831554412842,3,gustav
1772894963.8510466,0.9085693359375,-0.295654296875,0.728759765625,-4.69970703125,6.713866710662842,-7.446288585662842,3,gustav
1772894963.9722047,0.9024658203125,-0.4024658203125,0.68017578125,3.295898199081421,13.427733421325684,-5.432128429412842,3,gustav
1772894964.030957,1.0576171875,-0.5548095703125,0.852783203125,1.4038084745407104,18.310546875,-5.615233898162842,3,gustav
1772894964.030957,1.2420654296875,-0.331787109375,0.7633056640625,4.5166015625,4.2724609375,-7.080077648162842,3,gustav
1772894964.030957,0.9241943359375,-0.52392578125,0.6693115234375,17.822265625,3.723144292831421,-13.671874046325684,3,gustav
1772894964.092213,1.2257080078125,-0.5579833984375,0.815673828125,15.747069358825684,-2.685546636581421,-14.160155296325684,3,gustav
1772894964.092213,1.2181396484375,-0.372314453125,0.98095703125,-14.953612327575684,-10.192870140075684,-9.82666015625,3,gustav
1772894964.213167,1.1219482421875,-0.4144287109375,0.8787841796875,3.173827886581421,-7.263183116912842,-8.6669921875,3,gustav
1772894964.213167,1.14013671875,-0.4815673828125,0.8526611328125,7.568358898162842,6.958007335662842,-1.9531248807907104,3,gustav
1772894964.2151263,1.0185546875,-0.593994140625,0.669677734375,-9.6435546875,12.023924827575684,14.709471702575684,3,gustav
1772894964.2696846,0.9017333984375,-0.4632568359375,0.6373291015625,-20.01953125,15.136717796325684,23.742673873901367,3,gustav
1772894964.2733893,0.8389892578125,-0.37353515625,0.5987548828125,-15.441893577575684,12.756346702575684,21.545408248901367,3,gustav
1772894964.3316736,0.7584228515625,-0.3594970703125,0.572509765625,-9.70458984375,6.835937023162842,10.864256858825684,3,gustav
1772894964.4513888,0.77490234375,-0.3812255859375,0.56201171875,-6.652831554412842,-3.479003667831421,7.019042491912842,3,gustav
1772894964.4513888,0.7711181640625,-0.2916259765625,0.541259765625,-7.751464366912842,-8.544921875,3.967284917831421,3,gustav
1772894964.4542925,0.8095703125,-0.32763671875,0.58056640625,4.150390625,-9.09423828125,2.50244140625,3,gustav
1772894964.5111206,0.789306640625,-0.355224609375,0.5738525390625,-7.141112804412842,-5.920409679412842,4.21142578125,3,gustav
1772894964.5111206,0.8162841796875,-0.3067626953125,0.6290283203125,-0.7934569716453552,0.0610351525247097,-2.807616949081421,3,gustav
1772894964.5720944,0.8382568359375,-0.38916015625,0.617431640625,10.803221702575684,7.263183116912842,-4.08935546875,3,gustav
1772894964.6926315,0.791748046875,-0.377197265625,0.532470703125,5.371093273162842,8.544921875,-4.39453125,3,gustav
1772894964.6926315,0.714111328125,-0.3255615234375,0.5159912109375,6.469726085662842,6.469726085662842,-2.929687261581421,3,gustav
1772894964.6926315,0.6270751953125,-0.3109130859375,0.41845703125,10.375975608825684,2.197265625,-5.310058116912842,3,gustav
1772894964.752367,0.518798828125,-0.2752685546875,0.4127197265625,4.7607421875,-1.7089842557907104,-5.798339366912842,3,gustav
1772894964.752367,0.363037109375,-0.160888671875,0.302490234375,18.5546875,-0.30517578125,-14.282225608825684,3,gustav
1772894964.809339,0.2733154296875,-0.1785888671875,0.231201171875,32.77587890625,1.4648436307907104,-18.73779296875,3,gustav
1772894964.8668666,0.235107421875,-0.240966796875,0.1810302734375,20.874021530151367,0.8544921278953552,-10.009765625,3,gustav
1772894964.8668666,0.247314453125,-0.1651611328125,0.1678466796875,16.11328125,-0.6103515625,-0.0610351525247097,3,gustav
1772894964.931712,0.3516845703125,-0.145263671875,0.3056640625,28.381345748901367,0.3662109076976776,14.648436546325684,3,gustav
1772894964.9332526,0.3848876953125,-0.2479248046875,0.2584228515625,29.113767623901367,1.5869139432907104,5.187987804412842,3,gustav
1772894964.9940574,0.44189453125,-0.1495361328125,0.52099609375,22.827146530151367,13.000487327575684,-26.306150436401367,3,gustav
1772894965.0533824,0.3353271484375,-0.2523193359375,0.4757080078125,63.476558685302734,19.8974609375,-79.28466796875,3,gustav
1772894965.106162,0.3551025390625,-0.1634521484375,0.48828125,11.657713890075684,17.4560546875,-119.26268768310547,3,gustav
1772894965.1144943,0.400390625,-0.2535400390625,0.44140625,23.498533248901367,4.7607421875,-159.3017578125,3,gustav
1772894965.1701536,0.4005126953125,-0.48876953125,0.3564453125,4.638671875,-12.268065452575684,-207.39744567871094,3,gustav
1772894965.1701536,0.2694091796875,-0.7459716796875,0.384521484375,-26.672361373901367,-44.067378997802734,-242.18748474121094,3,gustav
1772894965.2925344,0.2337646484375,-0.680908203125,0.4267578125,-93.99413299560547,-82.09227752685547,-272.03369140625,3,gustav
1772894965.2925344,0.0279541015625,-0.70947265625,0.529052734375,-86.48680877685547,-109.98534393310547,-281.005859375,3,gustav
