aX,aY,aZ,gX,gY,gZ
-1.0294189453125,-0.976318359375,-0.652587890625,48.339839935302734,-142.578125,188.29344177246094
-1.0416259765625,-1.0418701171875,-0.765380859375,49.987789154052734,-168.64012145996094,208.61814880371094
-1.0504150390625,-1.01123046875,-0.759033203125,54.504390716552734,-182.98338317871094,220.27586364746094
-0.8946533203125,-0.9058837890625,-0.611328125,58.593746185302734,-197.93699645996094,231.44529724121094
-0.547119140625,-0.8851318359375,-0.665283203125,49.377437591552734,-203.24705505371094,226.98973083496094
-0.4210205078125,-0.8699951171875,-0.6512451171875,38.2080078125,-212.40232849121094,220.64207458496094
-0.380615234375,-0.700927734375,-0.4600830078125,29.846189498901367,-221.13035583496094,204.16258239746094
-0.2027587890625,-0.6123046875,-0.405517578125,15.380858421325684,-219.36033630371094,186.76756286621094
-0.0865478515625,-0.5892333984375,-0.3941650390625,0.9155272841453552,-211.91404724121094,163.39109802246094
0.0206298828125,-0.531494140625,-0.353515625,-4.0283203125,-196.47215270996094,145.01953125
0.10009765625,-0.4874267578125,-0.2706298828125,-9.1552734375,-176.57469177246094,125.73241424560547
0.184326171875,-0.4171142578125,-0.176025390625,-3.234863042831421,-156.55517578125,105.46874237060547
0.34619140625,-0.3631591796875,-0.102783203125,5.0048828125,-133.85009765625,83.98436737060547
0.50048828125,-0.4168701171875,-0.1505126953125,8.1787109375,-112.48778533935547,66.83349609375
0.5758056640625,-0.3935546875,-0.039306640625,16.90673828125,-88.86717987060547,53.955074310302734
0.6552734375,-0.36083984375,0.0626220703125,8.36181640625,-63.781734466552734,37.59765625
0.7041015625,-0.438232421875,-0.006103515625,3.601073980331421,-43.395992279052734,27.038572311401367
0.7586669921875,-0.4354248046875,0.0330810546875,-6.835937023162842,-24.475095748901367,17.76123046875
0.7960205078125,-0.4503173828125,-0.0316162109375,-14.160155296325684,-7.751464366912842,12.145995140075684
0.797119140625,-0.4967041015625,-0.103759765625,-11.840819358825684,2.01416015625,7.934569835662842
0.7998046875,-0.4927978515625,-0.1077880859375,-11.779784202575684,5.676269054412842,3.967284917831421
0.8160400390625,-0.5185546875,-0.1962890625,-5.859374523162842,6.225585460662842,0.6713866591453552
0.82470703125,-0.5089111328125,-0.1856689453125,-1.4648436307907104,3.967284917831421,-0.8544921278953552
0.8118896484375,-0.5201416015625,-0.1751708984375,-3.845214605331421,4.33349609375,-1.03759765625
0.8287353515625,-0.513671875,-0.186279296875,-5.065917491912842,4.39453125,-0.8544921278953552
0.8250732421875,-0.48388671875,-0.1435546875,-5.126952648162842,4.82177734375,-2.685546636581421
0.81884765625,-0.454833984375,-0.0972900390625,-3.601073980331421,10.253905296325684,-7.080077648162842
0.801025390625,-0.455810546875,-0.1265869140625,0.4882812201976776,15.380858421325684,-11.047362327575684
0.771240234375,-0.4443359375,-0.1114501953125,3.356933355331421,22.583005905151367,-16.6015625
0.752197265625,-0.458984375,-0.1226806640625,8.1787109375,33.69140625,-23.864744186401367
0.737548828125,-0.373046875,-0.0443115234375,11.779784202575684,45.715328216552734,-35.400390625
0.703125,-0.4874267578125,-0.1661376953125,10.009765625,58.715816497802734,-44.494625091552734
0.6614990234375,-0.467529296875,-0.183837890625,7.385253429412842,68.54248046875,-53.649898529052734
0.62158203125,-0.404541015625,-0.0511474609375,0.7934569716453552,83.55712127685547,-68.359375
0.5531005859375,-0.59619140625,-0.2965087890625,-6.164550304412842,95.45897674560547,-78.67431640625
0.5201416015625,-0.4949951171875,-0.2572021484375,-5.493163585662842,100.83007049560547,-89.84374237060547
0.4510498046875,-0.531005859375,-0.22607421875,-2.25830078125,112.73192596435547,-104.73632049560547
0.36376953125,-0.71044921875,-0.4066162109375,-3.173827886581421,115.17333221435547,-111.02294158935547
0.3145751953125,-0.5833740234375,-0.33203125,4.82177734375,121.39891815185547,-119.50682830810547
0.23046875,-0.753173828125,-0.4559326171875,2.868652105331421,122.68065643310547,-126.34276580810547
0.1285400390625,-0.7908935546875,-0.5755615234375,1.4038084745407104,123.29100799560547,-125.61034393310547
0.033447265625,-0.802734375,-0.579345703125,2.50244140625,118.28612518310547,-128.2958984375
-0.065185546875,-0.806884765625,-0.530517578125,-3.540038824081421,115.90575408935547,-130.2490234375
-0.166015625,-0.9779052734375,-0.7376708984375,-11.047362327575684,110.35155487060547,-123.16893768310547
-0.2423095703125,-0.798583984375,-0.529296875,-14.892577171325684,102.96630096435547,-122.13134002685547
-0.2598876953125,-0.8604736328125,-0.4715576171875,-20.324705123901367,106.32323455810547,-123.84032440185547
-0.3184814453125,-1.04052734375,-0.751220703125,-26.611326217651367,102.72216033935547,-118.46923065185547
-0.4376220703125,-0.8421630859375,-0.5909423828125,-27.282712936401367,87.28026580810547,-114.19676971435547
-0.466064453125,-0.7509765625,-0.3385009765625,-30.517576217651367,96.55760955810547,-117.55370330810547
-0.515625,-1.021484375,-0.72705078125,-16.9677734375,86.18163299560547,-107.48290252685547
-0.6048583984375,-0.7559814453125,-0.3846435546875,-26.489255905151367,78.91845703125,-110.29051971435547
-0.6492919921875,-0.809326171875,-0.38427734375,-17.88330078125,85.51024627685547,-107.29979705810547
-0.7081298828125,-0.85400390625,-0.5220947265625,-15.075682640075684,74.3408203125,-96.67967987060547
-0.7581787109375,-0.7021484375,-0.319580078125,-17.2119140625,71.8994140625,-94.23827362060547
-0.7960205078125,-0.758544921875,-0.3480224609375,-13.366698265075684,72.265625,-88.31786346435547
-0.8206787109375,-0.75390625,-0.3768310546875,-12.512206077575684,61.462398529052734,-80.26123046875
-0.86279296875,-0.6348876953125,-0.2178955078125,-13.305663108825684,58.776851654052734,-75.50048828125
-0.8707275390625,-0.6646728515625,-0.2216796875,-10.925292015075684,60.546871185302734,-67.81005859375
-0.863525390625,-0.666015625,-0.2708740234375,-10.253905296325684,57.861324310302734,-58.471675872802734
-0.875,-0.6099853515625,-0.22998046875,-14.648436546325684,51.757808685302734,-52.551265716552734
-0.8848876953125,-0.5338134765625,-0.142333984375,-15.686034202575684,45.104976654052734,-49.987789154052734
-0.9072265625,-0.56640625,-0.1226806640625,-16.357421875,38.818359375,-43.640132904052734
-0.9217529296875,-0.5599365234375,-0.1470947265625,2.38037109375,28.869626998901367,-31.494138717651367
-0.9232177734375,-0.5455322265625,-0.1197509765625,6.286620616912842,24.658201217651367,-22.094724655151367
-0.8953857421875,-0.522705078125,-0.125,6.347655773162842,18.798828125,-20.01953125
-0.866455078125,-0.493408203125,-0.0924072265625,14.221190452575684,12.878417015075684,-12.268065452575684
-0.8818359375,-0.4652099609375,-0.04736328125,7.690429210662842,11.779784202575684,-14.465331077575684
-0.895751953125,-0.5010986328125,-0.099853515625,3.479003667831421,9.8876953125,-7.141112804412842
-0.9013671875,-0.4840087890625,-0.0975341796875,16.05224609375,6.347655773162842,-1.4038084745407104
-0.9036865234375,-0.4705810546875,-0.043212890625,12.145995140075684,4.94384765625,-0.6103515625
-0.8974609375,-0.4718017578125,-0.0467529296875,15.380858421325684,3.540038824081421,0.4272460639476776
-0.8995361328125,-0.4549560546875,-0.05419921875,1.03759765625,2.746581792831421,2.13623046875
-0.905517578125,-0.437744140625,-0.06494140625,9.27734375,3.479003667831421,2.624511480331421
-0.8936767578125,-0.44580078125,-0.0714111328125,11.535643577575684,4.5166015625,3.479003667831421
-0.8836669921875,-0.4366455078125,-0.038818359375,8.97216796875,3.784179449081421,2.624511480331421
-0.89208984375,-0.4307861328125,-0.039306640625,0.6713866591453552,3.234863042831421,0.9155272841453552
-0.916748046875,-0.4130859375,-0.0516357421875,9.09423828125,3.540038824081421,1.5258787870407104
-0.91064453125,-0.433837890625,-0.078369140625,16.05224609375,5.0048828125,3.112792730331421
-0.890869140625,-0.431640625,-0.052001953125,6.652831554412842,4.150390625,-0.7324218153953552
-0.906494140625,-0.4014892578125,-0.0235595703125,5.0048828125,2.746581792831421,-0.7324218153953552
-0.90771484375,-0.426025390625,-0.0523681640625,9.27734375,2.13623046875,0.4272460639476776
-0.90966796875,-0.448974609375,-0.0704345703125,7.080077648162842,2.0751953125,-0.9765624403953552
-0.9005126953125,-0.43798828125,-0.051025390625,-0.1831054538488388,1.7700194120407104,-2.624511480331421
-0.906005859375,-0.409423828125,-0.0345458984375,-0.9765624403953552,2.197265625,-2.563476324081421
-0.899658203125,-0.4326171875,-0.054931640625,-0.54931640625,1.6479490995407104,-2.3193359375
-0.90576171875,-0.435546875,-0.052978515625,-1.7089842557907104,0.6713866591453552,-2.38037109375
-0.910400390625,-0.42333984375,-0.047119140625,0.30517578125,0.7934569716453552,-1.15966796875
-0.9014892578125,-0.4197998046875,-0.0526123046875,2.01416015625,1.03759765625,-0.7934569716453552
-0.9058837890625,-0.4390869140625,-0.049560546875,1.15966796875,0.4272460639476776,-1.3427733182907104
-0.912109375,-0.440185546875,-0.047119140625,0.8544921278953552,0.0,-1.8920897245407104
-0.9056396484375,-0.43310546875,-0.033447265625,2.13623046875,0.1831054538488388,-0.9765624403953552
-0.89794921875,-0.4178466796875,-0.03759765625,4.21142578125,0.7934569716453552,0.2441406100988388
-0.9041748046875,-0.4447021484375,-0.051513671875,2.50244140625,0.8544921278953552,-0.1220703050494194
-0.9031982421875,-0.433349609375,-0.0352783203125,0.8544921278953552,0.1831054538488388,-0.7324218153953552
-0.89599609375,-0.4310302734375,-0.0322265625,0.4882812201976776,0.54931640625,-0.4882812201976776
-0.9033203125,-0.4521484375,-0.052001953125,-0.4272460639476776,1.4648436307907104,-1.0986328125
-0.9000244140625,-0.438720703125,-0.042724609375,-0.30517578125,1.3427733182907104,-1.03759765625
-0.890869140625,-0.42822265625,-0.02783203125,-0.6713866591453552,1.15966796875,-0.1831054538488388
-0.89208984375,-0.430908203125,-0.037353515625,-1.4648436307907104,0.7324218153953552,0.4882812201976776
-0.9046630859375,-0.4322509765625,-0.0511474609375,-1.03759765625,0.8544921278953552,0.8544921278953552
-0.9044189453125,-0.4315185546875,-0.05517578125,1.4038084745407104,1.2817381620407104,1.5869139432907104
-0.900390625,-0.4315185546875,-0.0445556640625,0.4272460639476776,1.15966796875,1.3427733182907104
-0.896728515625,-0.4228515625,-0.044189453125,1.220703125,0.6713866591453552,0.8544921278953552
-0.8955078125,-0.4307861328125,-0.0477294921875,1.8310545682907104,0.7934569716453552,1.15966796875
-0.900634765625,-0.427001953125,-0.054931640625,1.220703125,0.8544921278953552,1.03759765625
-0.907958984375,-0.4210205078125,-0.0501708984375,4.0283203125,1.0986328125,1.4038084745407104
-0.9053955078125,-0.413818359375,-0.055908203125,5.737304210662842,1.15966796875,2.13623046875
-0.901611328125,-0.42919921875,-0.0487060546875,4.39453125,0.3662109076976776,1.5869139432907104
-0.9095458984375,-0.427001953125,-0.0509033203125,4.2724609375,-0.0610351525247097,0.8544921278953552
-0.9049072265625,-0.436279296875,-0.0465087890625,4.45556640625,0.0,0.1831054538488388
-0.9034423828125,-0.427734375,-0.045654296875,3.845214605331421,0.4882812201976776,-0.2441406100988388
-0.8997802734375,-0.4443359375,-0.0528564453125,0.7324218153953552,0.3662109076976776,-0.7934569716453552
-0.900634765625,-0.4395751953125,-0.0479736328125,-2.01416015625,-0.30517578125,-0.6103515625
-0.904052734375,-0.428955078125,-0.0396728515625,-0.4882812201976776,-0.30517578125,0.30517578125
-0.897216796875,-0.432861328125,-0.0428466796875,1.4648436307907104,0.1220703050494194,0.9155272841453552
-0.89453125,-0.438232421875,-0.0418701171875,0.6713866591453552,-0.0610351525247097,0.6713866591453552
-0.8988037109375,-0.437255859375,-0.0389404296875,1.2817381620407104,-0.3662109076976776,0.3662109076976776
-1.0408935546875,-1.0118408203125,-0.6329345703125,32.16552734375,-129.21142578125,157.77587890625
-1.1363525390625,-1.0308837890625,-0.6900634765625,33.50830078125,-158.69140625,187.74412536621094
-1.109130859375,-0.955810546875,-0.64208984375,40.527339935302734,-180.72508239746094,207.03123474121094
-0.912841796875,-1.0452880859375,-0.737060546875,36.7431640625,-197.93699645996094,216.49168395996094
-0.8203125,-1.0743408203125,-0.738037109375,26.489255905151367,-207.88572692871094,218.01756286621094
-0.6192626953125,-0.8892822265625,-0.580322265625,22.827146530151367,-214.35545349121094,212.64646911621094
-0.443603515625,-0.8426513671875,-0.561767578125,7.141112804412842,-218.56687927246094,206.66502380371094
-0.329833984375,-0.7254638671875,-0.4910888671875,4.0283203125,-214.35545349121094,195.80076599121094
-0.221923828125,-0.6722412109375,-0.4539794921875,8.1787109375,-209.59471130371094,184.50926208496094
-0.092529296875,-0.5726318359375,-0.3319091796875,-5.493163585662842,-196.41111755371094,168.27391052246094
0.0145263671875,-0.520263671875,-0.2901611328125,1.5869139432907104,-181.03025817871094,151.0009765625
0.1484375,-0.4691162109375,-0.2178955078125,3.601073980331421,-162.47557067871094,132.75146484375
0.2447509765625,-0.49169921875,-0.2564697265625,6.347655773162842,-145.01953125,113.15917205810547
0.353759765625,-0.448486328125,-0.1378173828125,12.939452171325684,-128.5400390625,99.30419158935547
0.4976806640625,-0.4100341796875,-0.0477294921875,13.000487327575684,-109.37499237060547,72.509765625
0.5997314453125,-0.3582763671875,-0.0052490234375,21.911619186401367,-89.84374237060547,58.349605560302734
0.716552734375,-0.385498046875,0.0179443359375,13.488768577575684,-72.20458984375,45.410152435302734
0.7633056640625,-0.339111328125,0.1070556640625,5.798339366912842,-52.734371185302734,34.912109375
0.788818359375,-0.3623046875,0.125732421875,-11.108397483825684,-30.212400436401367,25.939939498901367
0.793701171875,-0.3773193359375,0.0543212890625,-23.437498092651367,-10.253905296325684,19.04296875
0.8125,-0.333984375,0.0401611328125,-30.090330123901367,5.126952648162842,6.896972179412842
0.782958984375,-0.38330078125,-0.01904296875,-25.512693405151367,16.6015625,-5.371093273162842
0.78173828125,-0.37548828125,-0.0540771484375,-12.207030296325684,24.291990280151367,-16.05224609375
0.787353515625,-0.393310546875,-0.096923828125,-0.7324218153953552,30.395505905151367,-25.939939498901367
0.7867431640625,-0.424560546875,-0.1373291015625,5.920409679412842,33.8134765625,-30.883787155151367
0.7823486328125,-0.4593505859375,-0.1441650390625,12.634276390075684,38.0859375,-34.85107421875
0.7620849609375,-0.488037109375,-0.099853515625,13.610838890075684,43.457027435302734,-37.4755859375
0.7559814453125,-0.43603515625,-0.049560546875,7.751464366912842,52.673336029052734,-44.372554779052734
0.7059326171875,-0.553466796875,-0.170654296875,1.8310545682907104,61.340328216552734,-47.973628997802734
0.6826171875,-0.57666015625,-0.1920166015625,-9.33837890625,65.4296875,-52.734371185302734
0.6785888671875,-0.452392578125,-0.074951171875,-15.563963890075684,75.68359375,-64.75830078125
0.5732421875,-0.62841796875,-0.2515869140625,-17.9443359375,82.76366424560547,-71.10595703125
0.5521240234375,-0.610107421875,-0.30810546875,-20.629880905151367,84.96092987060547,-77.45361328125
0.5107421875,-0.548095703125,-0.1966552734375,-7.263183116912842,90.75926971435547,-88.80614471435547
0.469482421875,-0.7044677734375,-0.3597412109375,-3.601073980331421,96.00829315185547,-93.32274627685547
0.387939453125,-0.734619140625,-0.4500732421875,-2.685546636581421,92.10204315185547,-98.75487518310547
0.355712890625,-0.6063232421875,-0.2520751953125,20.01953125,96.00829315185547,-108.52050018310547
0.31396484375,-0.8026123046875,-0.43212890625,5.859374523162842,103.02733612060547,-107.72704315185547
0.167236328125,-0.8477783203125,-0.5799560546875,0.7934569716453552,101.01317596435547,-105.83495330810547
0.1407470703125,-0.68408203125,-0.3634033203125,15.441893577575684,104.06493377685547,-106.56737518310547
0.0369873046875,-0.919189453125,-0.568603515625,-11.352538108825684,104.67528533935547,-109.06981658935547
-0.0758056640625,-0.8944091796875,-0.5777587890625,-4.57763671875,101.80663299560547,-104.85839080810547
-0.091552734375,-0.8837890625,-0.5697021484375,-7.690429210662842,94.17723846435547,-106.62841033935547
-0.186767578125,-0.9111328125,-0.50341796875,-29.907224655151367,90.39305877685547,-112.36571502685547
-0.277099609375,-0.9842529296875,-0.5712890625,-2.3193359375,88.07372283935547,-102.96630096435547
-0.2791748046875,-0.9373779296875,-0.4429931640625,-23.193357467651367,85.26610565185547,-102.78319549560547
-0.3558349609375,-0.9102783203125,-0.6041259765625,-15.563963890075684,84.10643768310547,-100.28075408935547
-0.4267578125,-0.876708984375,-0.5396728515625,-2.563476324081421,75.3173828125,-94.54344940185547
-0.43896484375,-0.83642578125,-0.4466552734375,-9.21630859375,75.8056640625,-96.13036346435547
-0.516845703125,-0.8555908203125,-0.5281982421875,1.0986328125,76.23291015625,-89.72167205810547
-0.562744140625,-0.83251953125,-0.4654541015625,-2.746581792831421,70.3125,-85.20507049560547
-0.6134033203125,-0.716064453125,-0.3804931640625,3.051757574081421,72.44873046875,-85.20507049560547
-0.669189453125,-0.7855224609375,-0.430419921875,2.746581792831421,69.03076171875,-81.66503143310547
-0.7393798828125,-0.7359619140625,-0.384765625,-1.8310545682907104,65.85693359375,-80.2001953125
-0.7764892578125,-0.714599609375,-0.359375,4.33349609375,64.51416015625,-75.01220703125
-0.81201171875,-0.7000732421875,-0.3477783203125,5.554198741912842,59.692378997802734,-68.42041015625
-0.81982421875,-0.6749267578125,-0.283935546875,4.94384765625,54.199214935302734,-61.645503997802734
-0.8250732421875,-0.667724609375,-0.2772216796875,6.774901866912842,51.879878997802734,-56.396480560302734
-0.823974609375,-0.6759033203125,-0.3111572265625,7.202147960662842,47.485347747802734,-51.025386810302734
-0.842529296875,-0.6485595703125,-0.267333984375,2.25830078125,42.419429779052734,-45.837398529052734
-0.8515625,-0.6077880859375,-0.244384765625,0.9155272841453552,40.771480560302734,-41.259761810302734
-0.855712890625,-0.5599365234375,-0.264404296875,0.54931640625,40.710445404052734,-36.80419921875
-0.86376953125,-0.57373046875,-0.220703125,-8.544921875,37.78076171875,-33.203125
-0.860595703125,-0.5423583984375,-0.1943359375,-3.234863042831421,33.87451171875,-28.503416061401367
-0.8714599609375,-0.5159912109375,-0.1796875,10.498045921325684,30.700681686401367,-22.766111373901367
-0.8648681640625,-0.511474609375,-0.1400146484375,19.6533203125,18.85986328125,-13.488768577575684
-0.86669921875,-0.496826171875,-0.1378173828125,22.094724655151367,17.51708984375,-11.718749046325684
-0.875732421875,-0.4991455078125,-0.1348876953125,20.629880905151367,16.4794921875,-11.047362327575684
-0.8870849609375,-0.501708984375,-0.1353759765625,14.892577171325684,14.221190452575684,-9.765625
-0.8857421875,-0.49267578125,-0.1181640625,8.72802734375,11.047362327575684,-8.544921875
-0.8974609375,-0.4654541015625,-0.1153564453125,9.1552734375,10.742186546325684,-6.530761241912842
-0.887939453125,-0.4915771484375,-0.1441650390625,4.39453125,9.94873046875,-4.57763671875
-0.896240234375,-0.4788818359375,-0.127685546875,-3.417968511581421,7.934569835662842,-5.371093273162842
-0.9052734375,-0.4453125,-0.1112060546875,-0.1831054538488388,7.385253429412842,-4.0283203125
-0.8990478515625,-0.4449462890625,-0.1063232421875,-0.2441406100988388,6.530761241912842,-2.990722417831421
-0.8931884765625,-0.4483642578125,-0.1007080078125,-1.7089842557907104,5.554198741912842,-2.929687261581421
-0.8946533203125,-0.4417724609375,-0.0960693359375,1.9531248807907104,4.2724609375,-1.8310545682907104
-0.890380859375,-0.43505859375,-0.087646484375,4.94384765625,4.0283203125,-1.220703125
-0.885986328125,-0.450439453125,-0.09033203125,4.33349609375,4.08935546875,-1.220703125
-0.8995361328125,-0.435302734375,-0.07763671875,4.150390625,2.990722417831421,-1.15966796875
-0.8902587890625,-0.4339599609375,-0.090087890625,8.97216796875,3.540038824081421,0.2441406100988388
-0.8828125,-0.454345703125,-0.0928955078125,7.141112804412842,3.051757574081421,-0.30517578125
-0.8863525390625,-0.446044921875,-0.069580078125,1.220703125,1.6479490995407104,-1.7700194120407104
-0.900390625,-0.4327392578125,-0.082275390625,2.929687261581421,1.7089842557907104,-0.7324218153953552
-0.893798828125,-0.438720703125,-0.0919189453125,2.563476324081421,1.5258787870407104,-0.1831054538488388
-0.8997802734375,-0.4296875,-0.0838623046875,0.1220703050494194,1.15966796875,-0.6103515625
-0.9013671875,-0.4404296875,-0.08447265625,0.2441406100988388,0.8544921278953552,-0.9155272841453552
-0.9010009765625,-0.437255859375,-0.082275390625,0.9155272841453552,0.8544921278953552,-1.5258787870407104
-0.8907470703125,-0.435546875,-0.0792236328125,0.6713866591453552,0.7324218153953552,-1.5869139432907104
-0.89013671875,-0.425537109375,-0.0782470703125,2.44140625,0.7324218153953552,-1.4648436307907104
-0.8896484375,-0.43994140625,-0.0924072265625,2.197265625,1.0986328125,-1.6479490995407104
-0.895751953125,-0.4339599609375,-0.0831298828125,1.5869139432907104,0.6103515625,-1.7700194120407104
-0.8990478515625,-0.427490234375,-0.07666015625,2.197265625,0.6103515625,-1.5258787870407104
-0.90087890625,-0.4298095703125,-0.0877685546875,3.417968511581421,1.03759765625,-1.03759765625
-0.90478515625,-0.4423828125,-0.08349609375,0.3662109076976776,0.4882812201976776,-1.9531248807907104
-0.9066162109375,-0.4322509765625,-0.0797119140625,0.7324218153953552,-0.0610351525247097,-1.7700194120407104
-0.9031982421875,-0.4234619140625,-0.0826416015625,2.50244140625,0.1220703050494194,-0.7934569716453552
-0.8961181640625,-0.4345703125,-0.0810546875,0.2441406100988388,-0.1831054538488388,-0.54931640625
-0.90234375,-0.4271240234375,-0.0748291015625,1.5258787870407104,-0.2441406100988388,0.0
-0.900634765625,-0.4307861328125,-0.086181640625,3.479003667831421,0.30517578125,0.54931640625
-0.904052734375,-0.4412841796875,-0.08056640625,0.8544921278953552,0.1220703050494194,-0.30517578125
-0.90625,-0.4345703125,-0.0777587890625,1.0986328125,0.1831054538488388,-0.4272460639476776
-0.898681640625,-0.427001953125,-0.080810546875,1.7700194120407104,0.8544921278953552,0.30517578125
-0.895751953125,-0.4390869140625,-0.083984375,0.6713866591453552,0.6103515625,0.3662109076976776
-0.896484375,-0.4306640625,-0.07958984375,0.1220703050494194,0.1220703050494194,0.6103515625
-0.8988037109375,-0.42626953125,-0.08056640625,1.0986328125,0.1220703050494194,1.03759765625
-0.9041748046875,-0.4395751953125,-0.0927734375,2.01416015625,0.3662109076976776,1.2817381620407104
-0.900390625,-0.4365234375,-0.0877685546875,2.3193359375,0.2441406100988388,0.7324218153953552
-0.89599609375,-0.430908203125,-0.0806884765625,2.50244140625,-0.0610351525247097,1.220703125
-0.890869140625,-0.4281005859375,-0.0806884765625,3.540038824081421,-0.0610351525247097,1.5869139432907104
-0.891357421875,-0.4385986328125,-0.0855712890625,2.624511480331421,-0.2441406100988388,1.5258787870407104
-0.9027099609375,-0.43115234375,-0.08740234375,3.173827886581421,-0.4272460639476776,1.3427733182907104
-0.8985595703125,-0.4293212890625,-0.09033203125,5.126952648162842,-0.1220703050494194,2.0751953125
-0.8934326171875,-0.43212890625,-0.0830078125,3.967284917831421,-0.30517578125,1.8310545682907104
-0.8990478515625,-0.43115234375,-0.08251953125,3.601073980331421,-0.4272460639476776,1.03759765625
-0.965576171875,-0.983154296875,-0.642822265625,18.24951171875,-128.5400390625,132.99560546875
-1.0216064453125,-1.0303955078125,-0.715087890625,12.451170921325684,-153.74755859375,157.3486328125
-1.077392578125,-1.05859375,-0.7615966796875,22.888181686401367,-178.10057067871094,187.19480895996094
-1.012939453125,-1.0467529296875,-0.7509765625,14.404295921325684,-200.80564880371094,204.52879333496094
-0.8385009765625,-1.085205078125,-0.789794921875,21.240232467651367,-218.01756286621094,211.79197692871094
-0.7537841796875,-1.0927734375,-0.7626953125,16.66259765625,-230.59080505371094,212.64646911621094
-0.68359375,-0.890380859375,-0.58740234375,9.6435546875,-238.76951599121094,211.30369567871094
-0.426513671875,-0.7830810546875,-0.5726318359375,15.197752952575684,-236.20603942871094,208.49607849121094
-0.2652587890625,-0.71875,-0.5594482421875,9.82666015625,-233.09324645996094,198.12010192871094
-0.1949462890625,-0.6434326171875,-0.4771728515625,12.634276390075684,-231.38426208496094,186.03514099121094
-0.0634765625,-0.4521484375,-0.23583984375,2.624511480331421,-214.11131286621094,167.84666442871094
0.126708984375,-0.498291015625,-0.36767578125,1.03759765625,-197.20457458496094,150.87890625
0.1463623046875,-0.4598388671875,-0.2845458984375,3.173827886581421,-183.41062927246094,133.85009765625
0.2874755859375,-0.27490234375,-0.0615234375,10.620116233825684,-160.400390625,110.41259002685547
0.4427490234375,-0.36328125,-0.1146240234375,10.681151390075684,-139.34326171875,89.78270721435547
0.5238037109375,-0.3603515625,-0.08984375,15.991209983825684,-120.91063690185547,75.5615234375
0.6417236328125,-0.195068359375,0.135009765625,21.911619186401367,-97.53417205810547,54.992671966552734
0.7662353515625,-0.3316650390625,0.0638427734375,14.892577171325684,-75.0732421875,39.6728515625
0.7860107421875,-0.3406982421875,0.170654296875,-6.713866710662842,-51.025386810302734,31.677244186401367
0.8582763671875,-0.252685546875,0.2296142578125,-17.08984375,-25.146482467651367,20.202634811401367
0.8153076171875,-0.372314453125,0.0909423828125,-19.1650390625,-13.122557640075684,13.610838890075684
0.8343505859375,-0.34423828125,0.0687255859375,-23.803709030151367,-0.8544921278953552,4.21142578125
0.837158203125,-0.344482421875,0.0367431640625,-16.2353515625,10.192870140075684,-3.967284917831421
0.8369140625,-0.3955078125,-0.047607421875,-5.798339366912842,15.502928733825684,-8.97216796875
0.8402099609375,-0.386962890625,-0.04248046875,2.868652105331421,16.90673828125,-11.047362327575684
0.857666015625,-0.396240234375,-0.0274658203125,6.652831554412842,20.812986373901367,-12.512206077575684
0.8575439453125,-0.3961181640625,-0.02978515625,3.234863042831421,25.207517623901367,-14.770506858825684
0.845458984375,-0.3951416015625,-0.0321044921875,4.33349609375,28.869626998901367,-17.578125
0.8372802734375,-0.39892578125,-0.0274658203125,2.563476324081421,35.2783203125,-22.216794967651367
0.824462890625,-0.3642578125,0.02294921875,-0.4272460639476776,45.288082122802734,-29.541013717651367
0.7969970703125,-0.3817138671875,-0.0318603515625,-1.220703125,56.396480560302734,-37.78076171875
0.7506103515625,-0.431396484375,-0.1080322265625,-5.187987804412842,64.3310546875,-46.447750091552734
0.7530517578125,-0.371337890625,-0.0498046875,-9.033203125,73.1201171875,-58.288570404052734
0.703857421875,-0.42236328125,-0.1185302734375,-4.0283203125,83.67919158935547,-69.3359375
0.666259765625,-0.520263671875,-0.237060546875,-6.286620616912842,87.15819549560547,-75.86669921875
0.6390380859375,-0.47265625,-0.2139892578125,-3.845214605331421,90.94237518310547,-84.89989471435547
0.5830078125,-0.522216796875,-0.240478515625,6.286620616912842,97.10692596435547,-91.49169158935547
0.5234375,-0.6397705078125,-0.3255615234375,1.4648436307907104,99.79247283935547,-94.48241424560547
0.4725341796875,-0.6690673828125,-0.38916015625,-1.7089842557907104,100.21971893310547,-98.26659393310547
0.414794921875,-0.6839599609375,-0.4080810546875,0.7324218153953552,100.34178924560547,-100.95214080810547
0.339111328125,-0.751220703125,-0.4627685546875,-4.82177734375,99.85350799560547,-102.72216033935547
0.295166015625,-0.76513671875,-0.51171875,-1.5258787870407104,99.36522674560547,-102.84423065185547
0.2381591796875,-0.8294677734375,-0.5377197265625,-0.7934569716453552,96.25243377685547,-102.90526580810547
0.1671142578125,-0.812255859375,-0.5064697265625,-1.3427733182907104,94.60448455810547,-103.21044158935547
0.1226806640625,-0.8680419921875,-0.5853271484375,-0.6713866591453552,92.16307830810547,-101.50145721435547
0.0494384765625,-0.8739013671875,-0.5679931640625,-6.958007335662842,87.52440643310547,-100.95214080810547
-0.0120849609375,-0.886962890625,-0.57421875,3.906249761581421,87.21923065185547,-97.83934783935547
-0.0516357421875,-0.91650390625,-0.585693359375,-0.8544921278953552,82.33641815185547,-93.01757049560547
-0.1207275390625,-0.8504638671875,-0.5440673828125,-3.479003667831421,83.92333221435547,-94.90966033935547
-0.1910400390625,-0.9298095703125,-0.6497802734375,13.916014671325684,77.81982421875,-88.07372283935547
-0.240478515625,-0.81005859375,-0.42626953125,6.958007335662842,75.13427734375,-88.07372283935547
-0.2791748046875,-0.880859375,-0.56591796875,2.929687261581421,84.16747283935547,-89.72167205810547
-0.3748779296875,-0.90673828125,-0.6400146484375,-0.0610351525247097,78.30810546875,-81.60399627685547
-0.408203125,-0.7691650390625,-0.4652099609375,-13.244627952575684,73.6083984375,-82.51952362060547
-0.4791259765625,-0.8116455078125,-0.470703125,-10.864256858825684,80.26123046875,-81.66503143310547
-0.5155029296875,-0.88623046875,-0.561279296875,-12.207030296325684,73.3642578125,-78.30810546875
-0.569091796875,-0.7589111328125,-0.462646484375,-13.305663108825684,69.2138671875,-78.61328125
-0.6114501953125,-0.78564453125,-0.486328125,-2.44140625,66.0400390625,-75.927734375
-0.638427734375,-0.7823486328125,-0.4632568359375,-1.7089842557907104,60.546871185302734,-72.32666015625
-0.6695556640625,-0.751953125,-0.443115234375,3.173827886581421,58.471675872802734,-66.2841796875
-0.6871337890625,-0.76318359375,-0.445068359375,5.065917491912842,53.710933685302734,-59.570308685302734
-0.708740234375,-0.7421875,-0.400146484375,3.234863042831421,49.255367279052734,-54.077144622802734
-0.7276611328125,-0.73291015625,-0.3779296875,3.417968511581421,46.997066497802734,-48.339839935302734
-0.7425537109375,-0.7218017578125,-0.3848876953125,2.868652105331421,42.541500091552734,-42.236324310302734
-0.753173828125,-0.6883544921875,-0.3426513671875,1.8920897245407104,38.39111328125,-37.65869140625
-0.7603759765625,-0.6717529296875,-0.3211669921875,2.624511480331421,36.43798828125,-33.69140625
-0.7703857421875,-0.66259765625,-0.34033203125,1.2817381620407104,34.60693359375,-28.686521530151367
-0.783447265625,-0.6368408203125,-0.3480224609375,-1.2817381620407104,30.578611373901367,-22.888181686401367
-0.798095703125,-0.5953369140625,-0.316162109375,-1.220703125,26.489255905151367,-18.73779296875
-0.8173828125,-0.572265625,-0.263671875,-3.540038824081421,25.695798873901367,-16.05224609375
-0.804931640625,-0.57763671875,-0.2686767578125,-1.5258787870407104,24.841306686401367,-12.939452171325684
-0.79345703125,-0.576171875,-0.2420654296875,0.2441406100988388,21.911619186401367,-11.657713890075684
-0.8050537109375,-0.5621337890625,-0.22998046875,0.9765624403953552,20.385740280151367,-13.244627952575684
-0.804931640625,-0.5633544921875,-0.217529296875,2.0751953125,18.49365234375,-14.038084983825684
-0.820556640625,-0.5380859375,-0.2149658203125,2.3193359375,17.63916015625,-14.160155296325684
-0.8297119140625,-0.5362548828125,-0.2120361328125,1.8920897245407104,16.41845703125,-13.671874046325684
-0.8446044921875,-0.5054931640625,-0.18701171875,2.44140625,15.624999046325684,-13.671874046325684
-0.8433837890625,-0.51708984375,-0.1790771484375,1.4038084745407104,14.892577171325684,-12.634276390075684
-0.8551025390625,-0.5242919921875,-0.193603515625,0.1831054538488388,9.58251953125,-10.192870140075684
-0.8565673828125,-0.516357421875,-0.16796875,0.1831054538488388,7.812499523162842,-8.85009765625
-0.8587646484375,-0.506591796875,-0.153564453125,-2.563476324081421,6.774901866912842,-9.21630859375
-0.857177734375,-0.51416015625,-0.1683349609375,-0.6713866591453552,6.225585460662842,-7.507323741912842
-0.85693359375,-0.515869140625,-0.1771240234375,-0.1831054538488388,5.615233898162842,-5.920409679412842
-0.855712890625,-0.505126953125,-0.156982421875,0.0610351525247097,4.82177734375,-4.94384765625
-0.8564453125,-0.5035400390625,-0.15673828125,0.54931640625,4.5166015625,-4.57763671875
-0.8651123046875,-0.5050048828125,-0.1602783203125,0.7934569716453552,3.662109136581421,-3.784179449081421
-0.863525390625,-0.5078125,-0.171142578125,1.220703125,2.38037109375,-2.3193359375
-0.8692626953125,-0.488037109375,-0.154052734375,2.563476324081421,1.7089842557907104,-1.2817381620407104
-0.85986328125,-0.4913330078125,-0.15283203125,4.5166015625,2.01416015625,-0.1831054538488388
-0.859375,-0.494384765625,-0.1475830078125,1.5869139432907104,1.220703125,-0.6713866591453552
-0.86767578125,-0.4913330078125,-0.1553955078125,2.990722417831421,1.03759765625,0.1220703050494194
-0.86279296875,-0.494140625,-0.1551513671875,3.295898199081421,0.8544921278953552,0.7324218153953552
-0.8582763671875,-0.482177734375,-0.145263671875,0.7324218153953552,0.4272460639476776,0.1220703050494194
-0.865478515625,-0.480712890625,-0.147216796875,0.9765624403953552,0.7324218153953552,0.0610351525247097
-0.86328125,-0.48876953125,-0.154296875,0.0,1.03759765625,0.3662109076976776
-0.86328125,-0.482666015625,-0.1370849609375,-2.990722417831421,1.3427733182907104,-0.6713866591453552
-0.8656005859375,-0.47607421875,-0.136962890625,-1.6479490995407104,1.2817381620407104,-1.03759765625
-0.8673095703125,-0.4791259765625,-0.1397705078125,-0.7324218153953552,1.4038084745407104,-0.9155272841453552
-0.8687744140625,-0.486328125,-0.1480712890625,-1.8920897245407104,1.7700194120407104,-2.01416015625
-0.87255859375,-0.481689453125,-0.1407470703125,-0.7324218153953552,1.7700194120407104,-2.685546636581421
-0.8616943359375,-0.482421875,-0.1380615234375,0.6103515625,1.9531248807907104,-2.197265625
-0.864013671875,-0.4781494140625,-0.1322021484375,0.4882812201976776,1.5869139432907104,-2.44140625
-0.8670654296875,-0.483642578125,-0.134765625,1.220703125,1.5869139432907104,-2.25830078125
-0.8690185546875,-0.482421875,-0.140869140625,0.6103515625,1.4038084745407104,-2.01416015625
-0.8704833984375,-0.482666015625,-0.14111328125,0.8544921278953552,1.220703125,-1.8920897245407104
-0.8675537109375,-0.4798583984375,-0.13525390625,0.6713866591453552,1.2817381620407104,-1.8310545682907104
-0.864501953125,-0.4813232421875,-0.13818359375,-0.4882812201976776,1.220703125,-2.3193359375
-0.8675537109375,-0.4786376953125,-0.1385498046875,0.2441406100988388,1.15966796875,-2.25830078125
-0.866455078125,-0.4879150390625,-0.147216796875,0.9765624403953552,1.4648436307907104,-1.9531248807907104
-0.8690185546875,-0.478271484375,-0.13427734375,1.15966796875,1.4648436307907104,-2.3193359375
-0.8682861328125,-0.4805908203125,-0.13037109375,0.8544921278953552,1.5258787870407104,-2.624511480331421
-0.8709716796875,-0.4803466796875,-0.1358642578125,0.2441406100988388,1.0986328125,-2.197265625
-0.8685302734375,-0.482421875,-0.140380859375,1.7089842557907104,1.03759765625,-1.4038084745407104
-0.8714599609375,-0.4825439453125,-0.1363525390625,0.9155272841453552,0.7324218153953552,-1.4038084745407104
-0.870849609375,-0.4781494140625,-0.13720703125,0.4272460639476776,0.6713866591453552,-1.4038084745407104
-0.869873046875,-0.4814453125,-0.1434326171875,1.03759765625,0.3662109076976776,-0.6103515625
-0.8687744140625,-0.4793701171875,-0.137451171875,0.2441406100988388,-0.0610351525247097,-0.4882812201976776
-0.86962890625,-0.4757080078125,-0.1353759765625,0.8544921278953552,0.0610351525247097,-0.1831054538488388
-0.8974609375,-0.9808349609375,-0.700927734375,28.381345748901367,-124.51171112060547,136.53564453125
-0.91162109375,-1.0242919921875,-0.7662353515625,16.29638671875,-148.37646484375,156.79931640625
-0.9638671875,-1.0111083984375,-0.77880859375,12.268065452575684,-173.09568786621094,179.93162536621094
-0.889404296875,-1.0382080078125,-0.7923583984375,13.305663108825684,-192.13865661621094,195.98387145996094
-0.750732421875,-1.0457763671875,-0.8536376953125,16.357421875,-209.04539489746094,204.10154724121094
-0.586669921875,-0.9300537109375,-0.7271728515625,13.549803733825684,-222.29002380371094,200.68357849121094
-0.3970947265625,-0.8677978515625,-0.6693115234375,11.413573265075684,-225.28074645996094,201.41600036621094
-0.2900390625,-0.7762451171875,-0.6138916015625,6.774901866912842,-229.85838317871094,198.66941833496094
-0.1302490234375,-0.6239013671875,-0.4798583984375,6.347655773162842,-224.79246520996094,188.78172302246094
-0.0076904296875,-0.576904296875,-0.4072265625,-1.8920897245407104,-218.50584411621094,176.26951599121094
0.077392578125,-0.531982421875,-0.369384765625,-5.065917491912842,-211.42576599121094,168.02976989746094
0.1463623046875,-0.39404296875,-0.1937255859375,-4.82177734375,-197.99803161621094,149.23095703125
0.29736328125,-0.3609619140625,-0.150146484375,-2.25830078125,-177.36814880371094,131.34765625
0.395263671875,-0.4072265625,-0.177734375,5.126952648162842,-158.8134765625,116.88231658935547
0.4537353515625,-0.3558349609375,-0.0933837890625,5.0048828125,-138.48876953125,99.06005096435547
0.568359375,-0.2354736328125,0.069580078125,20.385740280151367,-115.35643768310547,82.76366424560547
0.69970703125,-0.2637939453125,0.1676025390625,25.390623092651367,-91.43065643310547,64.8193359375
0.781005859375,-0.264892578125,0.177001953125,16.41845703125,-66.40625,48.583980560302734
0.8203125,-0.2451171875,0.21044921875,1.8920897245407104,-43.518062591552734,35.46142578125
0.8074951171875,-0.224853515625,0.221923828125,-10.375975608825684,-21.484373092651367,18.4326171875
0.79248046875,-0.2752685546875,0.1640625,-24.841306686401367,-0.30517578125,5.310058116912842
0.8056640625,-0.2877197265625,0.0863037109375,-38.0859375,17.2119140625,-5.065917491912842
0.816650390625,-0.288818359375,-0.0203857421875,-38.14697265625,25.756834030151367,-12.390135765075684
0.87939453125,-0.2335205078125,0.0299072265625,-24.414060592651367,28.991697311401367,-21.057126998901367
0.896240234375,-0.3128662109375,-0.0416259765625,-7.690429210662842,32.5927734375,-24.719236373901367
0.9169921875,-0.319580078125,-0.0755615234375,4.08935546875,34.66796875,-24.475095748901367
0.903564453125,-0.3260498046875,-0.0390625,13.244627952575684,38.330078125,-25.268552780151367
0.866455078125,-0.3685302734375,-0.016357421875,13.732909202575684,45.410152435302734,-28.930662155151367
0.8319091796875,-0.39892578125,-0.0054931640625,9.21630859375,52.795406341552734,-35.33935546875
0.8212890625,-0.3819580078125,-0.0030517578125,1.3427733182907104,61.401363372802734,-44.677730560302734
0.7725830078125,-0.4156494140625,-0.0650634765625,-8.544921875,69.3359375,-53.710933685302734
0.7410888671875,-0.440673828125,-0.0999755859375,-12.939452171325684,78.4912109375,-61.706539154052734
0.6937255859375,-0.44482421875,-0.0849609375,-20.507810592651367,88.86717987060547,-70.73974609375
0.630126953125,-0.4219970703125,-0.13818359375,-27.160642623901367,99.18212127685547,-81.42089080810547
0.537353515625,-0.56396484375,-0.310791015625,-25.390623092651367,103.33251190185547,-83.43505096435547
0.566650390625,-0.4769287109375,-0.19580078125,-24.414060592651367,108.76464080810547,-92.77342987060547
0.4671630859375,-0.576171875,-0.2894287109375,-17.76123046875,118.04198455810547,-98.51073455810547
0.4051513671875,-0.6942138671875,-0.446044921875,-8.11767578125,117.79784393310547,-100.28075408935547
0.3619384765625,-0.666015625,-0.4197998046875,-6.530761241912842,118.04198455810547,-107.23876190185547
0.301513671875,-0.7667236328125,-0.4814453125,7.507323741912842,118.77440643310547,-109.25292205810547
0.2254638671875,-0.84423828125,-0.547607421875,-2.25830078125,115.35643768310547,-108.45946502685547
0.1395263671875,-0.7921142578125,-0.5211181640625,-0.9155272841453552,114.13573455810547,-108.21532440185547
0.0955810546875,-0.9683837890625,-0.64599609375,-1.2817381620407104,112.85399627685547,-102.66112518310547
0.030029296875,-0.956298828125,-0.6490478515625,-21.789548873901367,106.07909393310547,-97.71727752685547
0.00830078125,-0.820556640625,-0.5322265625,-4.5166015625,103.69872283935547,-96.92382049560547
-0.0191650390625,-1.0264892578125,-0.6597900390625,-16.54052734375,96.31346893310547,-93.50585174560547
-0.102783203125,-0.88525390625,-0.5941162109375,-10.864256858825684,91.49169158935547,-92.22411346435547
-0.1531982421875,-0.91748046875,-0.602783203125,5.859374523162842,87.64647674560547,-87.70751190185547
-0.2340087890625,-0.9542236328125,-0.6552734375,-14.160155296325684,80.078125,-85.20507049560547
-0.3271484375,-0.8251953125,-0.5894775390625,0.30517578125,74.76806640625,-81.17675018310547
-0.3658447265625,-0.8953857421875,-0.5621337890625,-2.197265625,70.068359375,-77.08740234375
-0.4071044921875,-0.8194580078125,-0.4810791015625,-11.230467796325684,70.1904296875,-77.0263671875
-0.439453125,-0.8865966796875,-0.5966796875,-3.601073980331421,65.73486328125,-71.83837890625
-0.4744873046875,-0.8131103515625,-0.5303955078125,-14.099120140075684,55.419918060302734,-72.20458984375
-0.5135498046875,-0.7880859375,-0.45654296875,-13.000487327575684,57.678218841552734,-70.556640625
-0.5535888671875,-0.84130859375,-0.5208740234375,-4.57763671875,54.321285247802734,-63.964839935302734
-0.569580078125,-0.746826171875,-0.4224853515625,-6.652831554412842,48.522945404052734,-62.194820404052734
-0.619873046875,-0.772216796875,-0.42431640625,-0.1831054538488388,47.851558685302734,-59.204097747802734
-0.647705078125,-0.7890625,-0.4390869140625,1.3427733182907104,42.358394622802734,-53.955074310302734
-0.6634521484375,-0.7369384765625,-0.392822265625,-1.5869139432907104,39.1845703125,-49.743648529052734
-0.674072265625,-0.728515625,-0.379150390625,-0.9765624403953552,39.00146484375,-46.508785247802734
-0.6885986328125,-0.7437744140625,-0.406982421875,-2.25830078125,35.09521484375,-41.809078216552734
-0.7078857421875,-0.6800537109375,-0.335205078125,-2.197265625,31.555173873901367,-38.818359375
-0.724853515625,-0.6689453125,-0.31201171875,1.220703125,31.921384811401367,-36.92626953125
-0.7418212890625,-0.6705322265625,-0.3277587890625,3.295898199081421,30.273435592651367,-34.3017578125
-0.7598876953125,-0.656982421875,-0.3277587890625,2.563476324081421,27.954099655151367,-31.127927780151367
-0.7806396484375,-0.61962890625,-0.296875,5.249022960662842,26.123044967651367,-27.282712936401367
-0.77685546875,-0.6209716796875,-0.27490234375,4.33349609375,25.878904342651367,-24.230955123901367
-0.790771484375,-0.6092529296875,-0.278076171875,3.479003667831421,24.902341842651367,-22.277830123901367
-0.7945556640625,-0.5989990234375,-0.25634765625,2.0751953125,24.108884811401367,-20.874021530151367
-0.80712890625,-0.5880126953125,-0.2562255859375,0.1831054538488388,24.536130905151367,-18.6767578125
-0.8079833984375,-0.5802001953125,-0.240966796875,-3.051757574081421,23.132322311401367,-17.08984375
-0.817138671875,-0.566650390625,-0.2398681640625,-2.990722417831421,21.240232467651367,-14.892577171325684
-0.82861328125,-0.5518798828125,-0.2264404296875,0.6103515625,19.34814453125,-12.817381858825684
-0.8294677734375,-0.545166015625,-0.22021484375,5.432128429412842,17.51708984375,-10.986327171325684
-0.8280029296875,-0.539794921875,-0.2208251953125,7.263183116912842,15.686034202575684,-10.009765625
-0.8272705078125,-0.544921875,-0.2269287109375,9.70458984375,13.732909202575684,-8.6669921875
-0.8331298828125,-0.5357666015625,-0.2132568359375,11.657713890075684,12.817381858825684,-7.019042491912842
-0.833251953125,-0.538330078125,-0.208251953125,5.249022960662842,10.437010765075684,-6.286620616912842
-0.834716796875,-0.5308837890625,-0.2012939453125,1.8920897245407104,8.6669921875,-6.164550304412842
-0.8372802734375,-0.4979248046875,-0.1771240234375,1.7700194120407104,4.82177734375,-5.065917491912842
-0.8411865234375,-0.5028076171875,-0.1871337890625,4.7607421875,4.45556640625,-4.33349609375
-0.8505859375,-0.50732421875,-0.19775390625,3.417968511581421,4.2724609375,-5.615233898162842
-0.8551025390625,-0.4947509765625,-0.18359375,3.906249761581421,3.784179449081421,-6.286620616912842
-0.8564453125,-0.5001220703125,-0.1807861328125,3.479003667831421,3.356933355331421,-6.347655773162842
-0.8624267578125,-0.49560546875,-0.176025390625,2.807616949081421,2.868652105331421,-5.798339366912842
-0.865478515625,-0.4957275390625,-0.162353515625,0.1220703050494194,2.685546636581421,-6.164550304412842
-0.875244140625,-0.4949951171875,-0.1707763671875,0.8544921278953552,3.540038824081421,-5.798339366912842
-0.8653564453125,-0.526611328125,-0.19189453125,-1.7089842557907104,2.990722417831421,-4.8828125
-0.868896484375,-0.4970703125,-0.162353515625,-4.638671875,2.0751953125,-5.126952648162842
-0.8692626953125,-0.484130859375,-0.1585693359375,-1.6479490995407104,3.356933355331421,-4.150390625
-0.8583984375,-0.510009765625,-0.1805419921875,-1.4648436307907104,2.807616949081421,-2.44140625
-0.859375,-0.502197265625,-0.161865234375,-1.6479490995407104,1.6479490995407104,-2.197265625
-0.8592529296875,-0.497802734375,-0.164306640625,1.8310545682907104,2.197265625,-0.4882812201976776
-0.8612060546875,-0.509033203125,-0.1717529296875,0.9155272841453552,1.8920897245407104,-0.0610351525247097
-0.8643798828125,-0.496337890625,-0.1719970703125,0.30517578125,0.7324218153953552,1.5869139432907104
-0.8668212890625,-0.4866943359375,-0.161376953125,0.54931640625,0.7934569716453552,2.38037109375
-0.8697509765625,-0.4853515625,-0.1556396484375,-2.25830078125,0.6103515625,1.4648436307907104
-0.872802734375,-0.4822998046875,-0.1639404296875,-2.50244140625,0.1831054538488388,1.6479490995407104
-0.862548828125,-0.4974365234375,-0.1719970703125,-1.3427733182907104,-0.4882812201976776,2.13623046875
-0.8592529296875,-0.490478515625,-0.1644287109375,-0.4272460639476776,-0.6713866591453552,2.01416015625
-0.8516845703125,-0.5006103515625,-0.16748046875,0.30517578125,-0.6713866591453552,1.5869139432907104
-0.84912109375,-0.482177734375,-0.1585693359375,0.3662109076976776,-0.7934569716453552,1.4038084745407104
-0.85205078125,-0.489013671875,-0.16064453125,-0.7324218153953552,-0.3662109076976776,0.7324218153953552
-0.860107421875,-0.496826171875,-0.161376953125,-2.01416015625,-0.54931640625,0.2441406100988388
-0.85791015625,-0.4888916015625,-0.1588134765625,-0.9155272841453552,-0.30517578125,1.03759765625
-0.8564453125,-0.4869384765625,-0.1551513671875,-1.7700194120407104,-0.4272460639476776,0.7934569716453552
-0.858154296875,-0.490966796875,-0.1605224609375,-2.868652105331421,-0.7934569716453552,0.1220703050494194
-0.8619384765625,-0.4781494140625,-0.1514892578125,-2.990722417831421,-0.6713866591453552,-0.4272460639476776
-0.850830078125,-0.4984130859375,-0.1614990234375,-0.7324218153953552,-0.2441406100988388,-0.7934569716453552
-0.8526611328125,-0.48193359375,-0.158935546875,-2.990722417831421,-0.30517578125,-1.8310545682907104
-0.853515625,-0.4884033203125,-0.1522216796875,-0.6713866591453552,-0.0610351525247097,-1.8310545682907104
-0.8541259765625,-0.4962158203125,-0.16162109375,-2.563476324081421,0.0610351525247097,-1.9531248807907104
-0.8558349609375,-0.4876708984375,-0.147705078125,-1.6479490995407104,0.0,-2.13623046875
-0.8568115234375,-0.4853515625,-0.15087890625,-2.3193359375,0.1220703050494194,-2.44140625
-0.9058837890625,-1.0159912109375,-0.6929931640625,37.41455078125,-137.87841796875,142.39501953125
-0.9144287109375,-1.0587158203125,-0.799072265625,30.456541061401367,-161.01072692871094,164.12351989746094
-0.9310302734375,-1.0340576171875,-0.7454833984375,21.240232467651367,-180.84715270996094,184.93650817871094
-0.827392578125,-1.0948486328125,-0.824462890625,16.66259765625,-196.65525817871094,205.01707458496094
-0.7637939453125,-1.1141357421875,-0.8299560546875,12.145995140075684,-210.44920349121094,208.12986755371094
-0.585205078125,-0.969970703125,-0.677978515625,3.784179449081421,-222.90037536621094,207.09226989746094
-0.384033203125,-0.8831787109375,-0.6673583984375,4.638671875,-223.32762145996094,209.65574645996094
-0.261474609375,-0.829833984375,-0.6741943359375,8.48388671875,-226.31834411621094,209.96092224121094
-0.1640625,-0.5546875,-0.3502197265625,15.869139671325684,-220.33689880371094,203.97947692871094
0.0948486328125,-0.5654296875,-0.4259033203125,15.075682640075684,-209.65574645996094,187.49998474121094
0.07861328125,-0.628173828125,-0.45703125,5.920409679412842,-199.82908630371094,174.80467224121094
0.12744140625,-0.30615234375,-0.1331787109375,13.427733421325684,-184.50926208496094,152.16064453125
0.3516845703125,-0.336669921875,-0.113037109375,11.840819358825684,-164.85594177246094,131.53076171875
0.4208984375,-0.386474609375,-0.1767578125,8.23974609375,-149.658203125,114.07469940185547
0.50439453125,-0.3046875,-0.0689697265625,13.854979515075684,-130.18798828125,97.16796112060547
0.638427734375,-0.1552734375,0.1126708984375,19.95849609375,-109.74120330810547,77.94189453125
0.7230224609375,-0.1322021484375,0.1343994140625,32.958984375,-86.79198455810547,57.739253997802734
0.761474609375,-0.222900390625,0.0958251953125,19.775390625,-63.720699310302734,39.9169921875
0.8177490234375,-0.158935546875,0.1890869140625,8.7890625,-39.306640625,26.733396530151367
0.83544921875,-0.2064208984375,0.2264404296875,-3.967284917831421,-17.39501953125,14.892577171325684
0.9066162109375,-0.152099609375,0.217041015625,-20.996091842651367,2.13623046875,6.652831554412842
0.8797607421875,-0.2301025390625,0.089599609375,-20.202634811401367,11.596678733825684,-7.568358898162842
0.894775390625,-0.2562255859375,0.0045166015625,-22.277830123901367,18.1884765625,-14.526366233825684
0.936279296875,-0.250732421875,0.0181884765625,-10.498045921325684,21.118162155151367,-17.51708984375
0.9456787109375,-0.3106689453125,-0.030029296875,1.7700194120407104,24.169919967651367,-16.357421875
0.9407958984375,-0.3309326171875,-0.0755615234375,5.798339366912842,22.766111373901367,-13.427733421325684
0.939208984375,-0.3165283203125,-0.0673828125,5.554198741912842,20.446775436401367,-13.427733421325684
0.930908203125,-0.32177734375,-0.026123046875,4.33349609375,21.606443405151367,-14.709471702575684
0.901611328125,-0.332763671875,-0.0155029296875,0.0610351525247097,25.817869186401367,-17.7001953125
0.8802490234375,-0.3089599609375,-0.0255126953125,-3.112792730331421,31.372068405151367,-23.010251998901367
0.8775634765625,-0.2720947265625,-0.01416015625,-4.5166015625,38.57421875,-30.273435592651367
0.8336181640625,-0.3123779296875,-0.0546875,-8.9111328125,47.607418060302734,-37.90283203125
0.807373046875,-0.3358154296875,-0.0787353515625,-13.793944358825684,54.992671966552734,-45.410152435302734
0.7899169921875,-0.3282470703125,-0.082275390625,-16.54052734375,62.561031341552734,-55.175777435302734
0.755615234375,-0.3636474609375,-0.0994873046875,-21.667478561401367,71.83837890625,-65.0634765625
0.719482421875,-0.3814697265625,-0.1646728515625,-20.935056686401367,80.32225799560547,-74.21875
0.677001953125,-0.45458984375,-0.20458984375,-22.338865280151367,85.75438690185547,-83.74022674560547
0.64794921875,-0.43896484375,-0.191650390625,-15.136717796325684,91.79686737060547,-92.59032440185547
0.5880126953125,-0.4619140625,-0.1678466796875,-5.310058116912842,101.13524627685547,-100.28075408935547
0.5128173828125,-0.6080322265625,-0.3270263671875,-8.36181640625,108.27635955810547,-103.14940643310547
0.43408203125,-0.6534423828125,-0.4217529296875,-4.39453125,108.15428924560547,-106.14012908935547
0.395751953125,-0.6778564453125,-0.420166015625,-2.197265625,106.87255096435547,-109.25292205810547
0.335693359375,-0.6416015625,-0.3643798828125,4.57763671875,111.63329315185547,-116.39403533935547
0.240234375,-0.8822021484375,-0.5841064453125,2.44140625,111.26708221435547,-111.02294158935547
0.180419921875,-0.7781982421875,-0.5516357421875,4.8828125,107.36083221435547,-111.81639862060547
0.140380859375,-0.80224609375,-0.53857421875,7.812499523162842,107.11669158935547,-111.57225799560547
0.03125,-0.910400390625,-0.65625,3.784179449081421,104.91942596435547,-108.70360565185547
-0.022705078125,-0.877685546875,-0.6422119140625,10.498045921325684,99.60936737060547,-101.50145721435547
-0.06640625,-0.872802734375,-0.6058349609375,-1.9531248807907104,96.00829315185547,-101.13524627685547
-0.1751708984375,-0.8828125,-0.6285400390625,0.9155272841453552,93.68895721435547,-96.86278533935547
-0.2042236328125,-0.9508056640625,-0.7066650390625,6.713866710662842,90.45409393310547,-90.94237518310547
-0.2427978515625,-0.8677978515625,-0.6051025390625,-6.958007335662842,80.87157440185547,-86.36473846435547
-0.294189453125,-0.8408203125,-0.587646484375,-4.33349609375,80.81053924560547,-85.75438690185547
-0.339599609375,-0.9429931640625,-0.66015625,-2.929687261581421,75.68359375,-80.32225799560547
-0.384521484375,-0.8497314453125,-0.5694580078125,-15.319823265075684,70.4345703125,-78.30810546875
-0.4384765625,-0.8065185546875,-0.569580078125,-5.737304210662842,70.6787109375,-73.54736328125
-0.473388671875,-0.84033203125,-0.588134765625,-3.173827886581421,64.39208984375,-70.86181640625
-0.5191650390625,-0.7896728515625,-0.5157470703125,-2.13623046875,60.668941497802734,-67.138671875
-0.55615234375,-0.773681640625,-0.4954833984375,7.263183116912842,61.462398529052734,-61.767574310302734
-0.586181640625,-0.7811279296875,-0.5169677734375,4.33349609375,59.936519622802734,-55.603023529052734
-0.61279296875,-0.7579345703125,-0.510009765625,3.601073980331421,57.250972747802734,-50.170894622802734
-0.629150390625,-0.710693359375,-0.466552734375,6.958007335662842,56.213375091552734,-47.119136810302734
-0.6619873046875,-0.7340087890625,-0.4677734375,8.60595703125,51.635738372802734,-44.433589935302734
-0.6837158203125,-0.7127685546875,-0.4105224609375,3.845214605331421,46.447750091552734,-42.968746185302734
-0.7060546875,-0.6981201171875,-0.423583984375,6.164550304412842,43.090816497802734,-39.12353515625
-0.713623046875,-0.688232421875,-0.4154052734375,1.03759765625,38.2080078125,-35.7666015625
-0.7239990234375,-0.662109375,-0.3802490234375,-4.57763671875,35.400390625,-33.50830078125
-0.742919921875,-0.653076171875,-0.3878173828125,-2.25830078125,33.87451171875,-29.602048873901367
-0.742919921875,-0.630615234375,-0.3380126953125,-8.4228515625,31.188962936401367,-27.465818405151367
-0.75634765625,-0.60107421875,-0.316162109375,-6.652831554412842,30.334470748901367,-28.442380905151367
-0.7762451171875,-0.5908203125,-0.3594970703125,1.6479490995407104,30.029294967651367,-26.000974655151367
-0.786376953125,-0.56201171875,-0.3135986328125,-2.868652105331421,28.686521530151367,-26.306150436401367
-0.7928466796875,-0.5546875,-0.293212890625,-2.746581792831421,28.198240280151367,-26.245115280151367
-0.8165283203125,-0.5728759765625,-0.296875,4.0283203125,25.634763717651367,-22.216794967651367
-0.820556640625,-0.5506591796875,-0.24169921875,2.0751953125,23.193357467651367,-19.6533203125
-0.829833984375,-0.5303955078125,-0.2308349609375,1.15966796875,22.888181686401367,-18.85986328125
-0.833984375,-0.55029296875,-0.266845703125,0.3662109076976776,21.423337936401367,-15.258788108825684
-0.8294677734375,-0.5469970703125,-0.236083984375,-3.601073980331421,18.06640625,-13.610838890075684
-0.8387451171875,-0.517333984375,-0.1976318359375,-7.202147960662842,17.822265625,-14.038084983825684
-0.8492431640625,-0.522216796875,-0.22265625,-7.324218273162842,17.63916015625,-11.840819358825684
-0.8494873046875,-0.5257568359375,-0.2293701171875,-8.544921875,15.930174827575684,-10.009765625
-0.854736328125,-0.4945068359375,-0.1973876953125,-13.793944358825684,13.427733421325684,-9.8876953125
-0.8646240234375,-0.47705078125,-0.1776123046875,-17.2119140625,11.352538108825684,-10.253905296325684
-0.869873046875,-0.481689453125,-0.1939697265625,-13.244627952575684,9.70458984375,-8.544921875
-0.8599853515625,-0.4876708984375,-0.1932373046875,-10.803221702575684,8.11767578125,-8.6669921875
-0.856689453125,-0.48486328125,-0.1875,-6.896972179412842,8.30078125,-8.30078125
-0.854736328125,-0.4862060546875,-0.1812744140625,-4.94384765625,6.408690929412842,-8.9111328125
-0.8662109375,-0.4659423828125,-0.15771484375,0.6103515625,4.8828125,-7.019042491912842
-0.86572265625,-0.4815673828125,-0.16845703125,8.72802734375,5.0048828125,-4.5166015625
-0.865234375,-0.5130615234375,-0.1802978515625,6.225585460662842,3.845214605331421,-4.94384765625
-0.87353515625,-0.498046875,-0.1412353515625,0.1831054538488388,1.4038084745407104,-5.126952648162842
-0.8746337890625,-0.4803466796875,-0.1434326171875,0.1831054538488388,0.9765624403953552,-2.807616949081421
-0.8651123046875,-0.51220703125,-0.16162109375,-5.432128429412842,-0.0610351525247097,-0.9765624403953552
-0.8695068359375,-0.4853515625,-0.149169921875,-10.498045921325684,-2.197265625,-0.9765624403953552
-0.883056640625,-0.4461669921875,-0.1334228515625,-5.981444835662842,-1.15966796875,-0.30517578125
-0.86669921875,-0.4747314453125,-0.1632080078125,-2.807616949081421,-0.0610351525247097,0.54931640625
-0.8638916015625,-0.4808349609375,-0.15576171875,-5.920409679412842,-1.3427733182907104,-0.8544921278953552
-0.875732421875,-0.45654296875,-0.136474609375,-3.417968511581421,-1.4648436307907104,-1.5869139432907104
-0.8800048828125,-0.4534912109375,-0.1446533203125,3.479003667831421,-0.1220703050494194,-1.8310545682907104
-0.867919921875,-0.486328125,-0.151123046875,6.469726085662842,0.6713866591453552,-1.15966796875
-0.8751220703125,-0.4766845703125,-0.1334228515625,0.7934569716453552,-0.6713866591453552,-2.01416015625
-0.8798828125,-0.464111328125,-0.1307373046875,0.9765624403953552,-0.30517578125,-1.7700194120407104
-0.8775634765625,-0.4681396484375,-0.1453857421875,3.112792730331421,0.9155272841453552,-0.9155272841453552
-0.8734130859375,-0.481689453125,-0.145263671875,-2.0751953125,0.4882812201976776,-1.4038084745407104
-0.8779296875,-0.4652099609375,-0.1346435546875,-4.57763671875,-0.3662109076976776,-1.7089842557907104
-0.87939453125,-0.462158203125,-0.127685546875,-3.173827886581421,0.1831054538488388,-1.220703125
-0.87451171875,-0.47021484375,-0.15380859375,2.38037109375,1.5869139432907104,0.0
-0.8695068359375,-0.4766845703125,-0.145751953125,-2.624511480331421,0.7324218153953552,-0.9765624403953552
-0.8782958984375,-0.456787109375,-0.124267578125,-0.9765624403953552,0.4882812201976776,-1.0986328125
-0.8760986328125,-0.4674072265625,-0.1395263671875,1.9531248807907104,1.15966796875,-0.1831054538488388
-0.8739013671875,-0.4793701171875,-0.146240234375,-0.1220703050494194,0.6103515625,-0.1831054538488388
-0.8760986328125,-0.4644775390625,-0.1326904296875,-0.7934569716453552,0.2441406100988388,-0.0610351525247097
-0.87353515625,-0.4561767578125,-0.1435546875,1.220703125,1.15966796875,0.54931640625
-0.8739013671875,-0.473388671875,-0.146484375,-1.5869139432907104,0.7934569716453552,0.6103515625
-0.8719482421875,-0.459716796875,-0.1312255859375,-1.15966796875,-0.1220703050494194,0.4272460639476776
-0.871826171875,-0.459228515625,-0.1396484375,1.4038084745407104,0.7324218153953552,0.9155272841453552
-0.8756103515625,-0.4730224609375,-0.1497802734375,2.01416015625,0.7324218153953552,-0.4272460639476776
-0.876220703125,-0.470703125,-0.1494140625,1.5258787870407104,0.0610351525247097,-0.6713866591453552
-0.872802734375,-0.4578857421875,-0.1361083984375,1.0986328125,-0.1831054538488388,-0.7934569716453552
-0.9415283203125,-1.021240234375,-0.6939697265625,57.250972747802734,-123.29100799560547,133.30078125
-1.0350341796875,-1.04345703125,-0.7022705078125,49.865718841552734,-153.38134765625,161.31590270996094
-0.9959716796875,-1.041748046875,-0.704345703125,46.874996185302734,-172.79051208496094,183.89891052246094
-0.9036865234375,-1.20068359375,-0.903564453125,27.221677780151367,-198.36424255371094,202.45359802246094
-0.835693359375,-1.1339111328125,-0.87255859375,12.573241233825684,-218.93309020996094,217.28514099121094
-0.6650390625,-1.0565185546875,-0.7138671875,5.371093273162842,-232.23875427246094,221.74070739746094
-0.4312744140625,-0.9605712890625,-0.630859375,-11.779784202575684,-234.19187927246094,224.85350036621094
-0.2476806640625,-0.896484375,-0.6649169921875,-1.2817381620407104,-232.60496520996094,228.08836364746094
-0.2139892578125,-0.822265625,-0.58447265625,4.8828125,-236.26707458496094,226.37937927246094
-0.0523681640625,-0.5400390625,-0.295654296875,-7.324218273162842,-228.63768005371094,210.69334411621094
0.122802734375,-0.47314453125,-0.314453125,7.141112804412842,-213.74510192871094,196.28904724121094
0.1612548828125,-0.531005859375,-0.3800048828125,10.253905296325684,-205.20018005371094,187.56101989746094
0.1727294921875,-0.376220703125,-0.201904296875,-6.958007335662842,-187.68309020996094,163.63523864746094
0.3248291015625,-0.11474609375,-0.0238037109375,8.7890625,-160.64451599121094,139.83154296875
0.46044921875,-0.3280029296875,-0.1678466796875,12.451170921325684,-138.97705078125,121.39891815185547
0.3876953125,-0.3013916015625,-0.09423828125,-2.0751953125,-114.44091033935547,103.02733612060547
0.5921630859375,-0.1185302734375,0.0711669921875,14.160155296325684,-88.01268768310547,86.91405487060547
0.71728515625,-0.1217041015625,0.12353515625,19.10400390625,-63.110347747802734,64.3310546875
0.768310546875,-0.1964111328125,0.08349609375,24.719236373901367,-43.273921966552734,50.292964935302734
0.86572265625,-0.208984375,0.1455078125,11.047362327575684,-28.015134811401367,38.6962890625
0.8994140625,-0.1639404296875,0.1668701171875,7.690429210662842,-15.624999046325684,28.381345748901367
0.9166259765625,-0.1990966796875,0.14697265625,-1.4648436307907104,-6.164550304412842,17.76123046875
0.93896484375,-0.20654296875,0.11572265625,-11.230467796325684,0.0610351525247097,11.108397483825684
0.927001953125,-0.1920166015625,0.108154296875,-15.075682640075684,5.920409679412842,5.615233898162842
0.937744140625,-0.1697998046875,-0.0013427734375,-12.084959983825684,8.23974609375,-0.2441406100988388
0.943603515625,-0.1842041015625,-0.0274658203125,-7.934569835662842,6.958007335662842,-4.45556640625
0.957275390625,-0.15283203125,0.0145263671875,-3.540038824081421,8.97216796875,-6.835937023162842
0.941650390625,-0.1849365234375,-0.004638671875,0.9155272841453552,11.596678733825684,-8.30078125
0.935791015625,-0.1866455078125,-0.00341796875,1.5258787870407104,12.084959983825684,-9.09423828125
0.9417724609375,-0.1712646484375,0.0333251953125,3.845214605331421,15.563963890075684,-12.207030296325684
0.92822265625,-0.1898193359375,0.0460205078125,2.197265625,22.583005905151367,-17.51708984375
0.9119873046875,-0.20947265625,0.028564453125,0.3662109076976776,29.602048873901367,-23.193357467651367
0.9000244140625,-0.19482421875,0.0302734375,-1.9531248807907104,36.7431640625,-31.860349655151367
0.8946533203125,-0.180419921875,0.0496826171875,-4.7607421875,46.691890716552734,-43.273921966552734
0.8648681640625,-0.2469482421875,-0.01953125,-3.967284917831421,56.945796966552734,-51.330562591552734
0.8497314453125,-0.26904296875,-0.079833984375,-8.36181640625,65.0634765625,-58.654781341552734
0.8477783203125,-0.2657470703125,-0.090087890625,-7.751464366912842,71.8994140625,-66.650390625
0.8121337890625,-0.3309326171875,-0.1383056640625,-8.056640625,78.79638671875,-72.81494140625
0.7877197265625,-0.3453369140625,-0.13623046875,-14.770506858825684,83.19091033935547,-79.77294921875
0.73486328125,-0.3948974609375,-0.1800537109375,-12.634276390075684,85.51024627685547,-86.48680877685547
0.6849365234375,-0.4609375,-0.220703125,-15.075682640075684,87.70751190185547,-90.27098846435547
0.647216796875,-0.5220947265625,-0.2890625,-13.549803733825684,90.82030487060547,-94.78759002685547
0.5948486328125,-0.5882568359375,-0.3800048828125,-16.4794921875,88.80614471435547,-96.43553924560547
0.554443359375,-0.63037109375,-0.410888671875,-13.793944358825684,87.70751190185547,-97.47313690185547
0.5025634765625,-0.5797119140625,-0.374755859375,-15.197752952575684,86.48680877685547,-101.37938690185547
0.431640625,-0.7679443359375,-0.53173828125,-3.173827886581421,88.13475799560547,-100.09764862060547
0.3970947265625,-0.787109375,-0.5423583984375,-8.544921875,82.82469940185547,-99.12108612060547
0.3558349609375,-0.641845703125,-0.41162109375,-1.8310545682907104,83.37401580810547,-102.23387908935547
0.2725830078125,-0.8214111328125,-0.537841796875,2.990722417831421,85.69335174560547,-98.08348846435547
0.2298583984375,-0.8134765625,-0.5826416015625,-2.929687261581421,82.03124237060547,-95.82518768310547
0.1800537109375,-0.8057861328125,-0.5511474609375,6.530761241912842,81.54296112060547,-96.49657440185547
0.1304931640625,-0.846435546875,-0.5377197265625,-5.920409679412842,81.48192596435547,-94.54344940185547
0.0667724609375,-0.862548828125,-0.605712890625,0.54931640625,80.68846893310547,-90.88134002685547
0.0166015625,-0.895751953125,-0.596923828125,-4.33349609375,72.998046875,-90.57616424560547
-0.0286865234375,-0.8060302734375,-0.5146484375,-12.329100608825684,76.904296875,-90.33202362060547
-0.0872802734375,-0.931640625,-0.6480712890625,-1.8310545682907104,73.66943359375,-84.35057830810547
-0.13720703125,-0.8616943359375,-0.5494384765625,-10.559081077575684,68.2373046875,-85.93749237060547
-0.1968994140625,-0.8768310546875,-0.5859375,-2.929687261581421,69.88525390625,-81.72606658935547
-0.2354736328125,-0.892822265625,-0.58154296875,0.30517578125,66.2841796875,-78.7353515625
-0.2899169921875,-0.871826171875,-0.5706787109375,-4.94384765625,63.964839935302734,-78.06396484375
-0.362548828125,-0.8587646484375,-0.5728759765625,2.38037109375,61.950679779052734,-73.73046875
-0.4102783203125,-0.8619384765625,-0.54931640625,-1.5258787870407104,59.143062591552734,-70.61767578125
-0.449462890625,-0.8260498046875,-0.5250244140625,-2.746581792831421,55.908199310302734,-68.2373046875
-0.482666015625,-0.823974609375,-0.5189208984375,-5.981444835662842,53.405757904052734,-64.02587890625
-0.5103759765625,-0.80126953125,-0.5150146484375,-7.019042491912842,52.001949310302734,-59.265132904052734
-0.534423828125,-0.777587890625,-0.4803466796875,-5.554198741912842,49.865718841552734,-56.884761810302734
-0.5614013671875,-0.76220703125,-0.472412109375,-4.69970703125,48.034664154052734,-54.565425872802734
-0.595703125,-0.7598876953125,-0.4727783203125,0.1831054538488388,46.386714935302734,-50.903316497802734
-0.622314453125,-0.7421875,-0.4495849609375,2.50244140625,44.189449310302734,-48.095699310302734
-0.647216796875,-0.71923828125,-0.4156494140625,1.3427733182907104,42.541500091552734,-45.776363372802734
-0.664306640625,-0.7196044921875,-0.404541015625,1.03759765625,42.541500091552734,-43.518062591552734
-0.6766357421875,-0.714599609375,-0.3895263671875,-0.0610351525247097,41.931148529052734,-41.992183685302734
-0.684326171875,-0.674560546875,-0.3712158203125,-1.2817381620407104,41.931148529052734,-41.992183685302734
-0.723876953125,-0.67138671875,-0.37060546875,-4.94384765625,41.442867279052734,-41.748043060302734
-0.7481689453125,-0.654052734375,-0.344970703125,-6.347655773162842,40.10009765625,-40.832515716552734
-0.7587890625,-0.630615234375,-0.32373046875,-4.5166015625,41.320796966552734,-38.4521484375
-0.7691650390625,-0.6258544921875,-0.32861328125,-3.112792730331421,40.649410247802734,-37.2314453125
-0.789794921875,-0.59912109375,-0.290283203125,-4.82177734375,37.9638671875,-35.33935546875
-0.818359375,-0.58203125,-0.2935791015625,0.4272460639476776,37.17041015625,-31.127927780151367
-0.8260498046875,-0.5731201171875,-0.2801513671875,4.08935546875,35.2783203125,-28.442380905151367
-0.830322265625,-0.5491943359375,-0.244140625,3.845214605331421,31.921384811401367,-27.343748092651367
-0.8348388671875,-0.5347900390625,-0.2220458984375,6.713866710662842,30.822751998901367,-23.620603561401367
-0.840576171875,-0.540771484375,-0.2635498046875,10.437010765075684,29.602048873901367,-18.98193359375
-0.8460693359375,-0.5166015625,-0.2196044921875,7.751464366912842,24.475095748901367,-18.5546875
-0.8604736328125,-0.4864501953125,-0.1734619140625,6.408690929412842,22.399900436401367,-16.9677734375
-0.864501953125,-0.5079345703125,-0.212646484375,9.1552734375,22.460935592651367,-12.451170921325684
-0.8585205078125,-0.50830078125,-0.19970703125,6.835937023162842,19.59228515625,-10.986327171325684
-0.8514404296875,-0.46923828125,-0.1663818359375,7.080077648162842,18.12744140625,-10.131834983825684
-0.86474609375,-0.470703125,-0.1544189453125,4.69970703125,16.78466796875,-10.070799827575684
-0.873779296875,-0.478271484375,-0.167236328125,8.30078125,13.427733421325684,-6.713866710662842
-0.8951416015625,-0.4766845703125,-0.15625,8.7890625,10.803221702575684,-6.103515148162842
-0.906494140625,-0.4642333984375,-0.1365966796875,6.286620616912842,8.85009765625,-7.019042491912842
-0.90869140625,-0.4599609375,-0.146484375,10.681151390075684,9.33837890625,-5.0048828125
-0.8883056640625,-0.4930419921875,-0.1654052734375,7.934569835662842,9.1552734375,-5.065917491912842
-0.8797607421875,-0.4774169921875,-0.1431884765625,4.638671875,8.4228515625,-7.263183116912842
-0.877685546875,-0.4573974609375,-0.1387939453125,8.11767578125,10.131834983825684,-6.225585460662842
-0.871826171875,-0.468505859375,-0.148193359375,7.141112804412842,10.742186546325684,-5.554198741912842
-0.888427734375,-0.4755859375,-0.1536865234375,3.112792730331421,9.33837890625,-6.225585460662842
-0.8995361328125,-0.44384765625,-0.1485595703125,7.202147960662842,9.765625,-4.94384765625
-0.87744140625,-0.463134765625,-0.143798828125,6.896972179412842,10.437010765075684,-3.906249761581421
-0.87646484375,-0.462890625,-0.1409912109375,0.9155272841453552,7.202147960662842,-3.906249761581421
-0.8916015625,-0.442138671875,-0.1282958984375,2.13623046875,5.554198741912842,-2.3193359375
-0.8856201171875,-0.4522705078125,-0.1357421875,6.774901866912842,5.065917491912842,0.7934569716453552
-0.8824462890625,-0.462158203125,-0.156005859375,6.652831554412842,4.2724609375,1.7089842557907104
-0.884521484375,-0.44287109375,-0.1319580078125,2.746581792831421,2.3193359375,0.2441406100988388
-0.8975830078125,-0.4183349609375,-0.125244140625,7.690429210662842,2.868652105331421,1.6479490995407104
-0.88134765625,-0.45751953125,-0.146240234375,9.8876953125,2.38037109375,2.25830078125
-0.8848876953125,-0.455078125,-0.1357421875,6.713866710662842,0.4272460639476776,1.5258787870407104
-0.8941650390625,-0.438232421875,-0.115234375,8.48388671875,-0.4882812201976776,2.50244140625
-0.8905029296875,-0.4483642578125,-0.128173828125,12.390135765075684,-0.1831054538488388,4.08935546875
-0.890869140625,-0.4676513671875,-0.14208984375,10.131834983825684,-1.15966796875,4.2724609375
-0.8917236328125,-0.4649658203125,-0.1142578125,3.234863042831421,-2.929687261581421,2.929687261581421
-0.895751953125,-0.4429931640625,-0.113525390625,4.57763671875,-2.25830078125,3.051757574081421
-0.873046875,-0.470703125,-0.1494140625,7.202147960662842,-1.3427733182907104,4.638671875
-0.8709716796875,-0.4586181640625,-0.125732421875,2.563476324081421,-1.5869139432907104,3.173827886581421
-0.8773193359375,-0.4423828125,-0.117919921875,1.5869139432907104,-0.2441406100988388,2.197265625
-0.871826171875,-0.4508056640625,-0.137451171875,4.08935546875,0.6713866591453552,2.44140625
-0.8704833984375,-0.4583740234375,-0.1309814453125,1.7089842557907104,-0.1220703050494194,1.8310545682907104
-0.891845703125,-0.4366455078125,-0.112060546875,2.01416015625,0.7324218153953552,0.6103515625
-0.9921875,-1.0029296875,-0.6995849609375,22.949216842651367,-139.7705078125,143.310546875
-1.0797119140625,-1.0750732421875,-0.8104248046875,21.850584030151367,-158.5693359375,163.26902770996094
-1.1068115234375,-1.0731201171875,-0.8414306640625,26.428220748901367,-186.64549255371094,192.62693786621094
-1.0350341796875,-1.1177978515625,-0.902099609375,19.59228515625,-219.17723083496094,217.22410583496094
-0.95947265625,-1.1427001953125,-0.8406982421875,16.9677734375,-244.93406677246094,234.06980895996094
-0.80810546875,-1.06787109375,-0.8199462890625,21.362302780151367,-259.21630859375,245.60545349121094
-0.5504150390625,-0.8822021484375,-0.715576171875,21.606443405151367,-261.04736328125,245.84959411621094
-0.333740234375,-0.69775390625,-0.5655517578125,20.568845748901367,-263.671875,239.44090270996094
-0.2340087890625,-0.60791015625,-0.453369140625,21.057126998901367,-257.6904296875,225.70799255371094
-0.0821533203125,-0.6190185546875,-0.40576171875,12.023924827575684,-252.62449645996094,208.61814880371094
-0.0147705078125,-0.3870849609375,-0.188232421875,-4.69970703125,-233.88670349121094,184.93650817871094
0.158447265625,-0.3599853515625,-0.2109375,2.197265625,-210.38816833496094,164.55076599121094
0.2276611328125,-0.3358154296875,-0.205810546875,-0.30517578125,-184.75340270996094,140.5029296875
0.3427734375,-0.207763671875,-0.0255126953125,17.63916015625,-156.25,117.79784393310547
0.5169677734375,-0.1683349609375,0.1051025390625,24.291990280151367,-123.59618377685547,93.81102752685547
0.64013671875,-0.1806640625,0.0469970703125,29.113767623901367,-97.96141815185547,76.66015625
0.681396484375,-0.115966796875,0.209716796875,17.4560546875,-73.05908203125,54.199214935302734
0.7335205078125,-0.15869140625,0.2230224609375,19.95849609375,-41.015621185302734,30.456541061401367
0.7886962890625,-0.3055419921875,0.0787353515625,-1.5258787870407104,-14.648436546325684,16.05224609375
0.85595703125,-0.1995849609375,0.070556640625,-10.620116233825684,3.356933355331421,2.13623046875
0.8583984375,-0.2996826171875,0.0186767578125,-9.09423828125,11.047362327575684,-6.347655773162842
0.9359130859375,-0.3289794921875,0.025390625,-14.831542015075684,13.244627952575684,-8.85009765625
0.974365234375,-0.31103515625,-0.0089111328125,-16.41845703125,13.244627952575684,-8.056640625
0.99267578125,-0.284423828125,-0.0380859375,-13.977049827575684,11.291502952575684,-5.920409679412842
0.978271484375,-0.2755126953125,-0.0257568359375,-9.09423828125,9.46044921875,-5.0048828125
0.933837890625,-0.268310546875,-0.0067138671875,-8.544921875,12.023924827575684,-5.981444835662842
0.898681640625,-0.240478515625,0.01318359375,-7.873534679412842,16.78466796875,-8.544921875
0.8797607421875,-0.2420654296875,0.0013427734375,-6.652831554412842,25.634763717651367,-14.404295921325684
0.86962890625,-0.2425537109375,-0.0048828125,-7.568358898162842,34.11865234375,-21.850584030151367
0.8580322265625,-0.2252197265625,0.0252685546875,-8.60595703125,44.494625091552734,-32.5927734375
0.8504638671875,-0.2423095703125,0.0234375,-11.169432640075684,57.250972747802734,-43.640132904052734
0.8140869140625,-0.2969970703125,-0.0709228515625,-12.512206077575684,67.81005859375,-52.307125091552734
0.775146484375,-0.3486328125,-0.1651611328125,-12.573241233825684,72.3876953125,-58.166500091552734
0.7913818359375,-0.2432861328125,-0.04931640625,-14.343260765075684,81.29882049560547,-71.6552734375
0.7144775390625,-0.38330078125,-0.1826171875,-7.873534679412842,91.12548065185547,-79.28466796875
0.662353515625,-0.4844970703125,-0.3118896484375,-13.977049827575684,91.79686737060547,-83.55712127685547
0.6776123046875,-0.3995361328125,-0.20947265625,-7.934569835662842,96.37450408935547,-93.13964080810547
0.600341796875,-0.493408203125,-0.28125,-2.624511480331421,102.11180877685547,-101.01317596435547
0.5303955078125,-0.6658935546875,-0.4674072265625,-8.30078125,100.03661346435547,-101.56249237060547
0.5018310546875,-0.49658203125,-0.2822265625,-0.7934569716453552,103.45458221435547,-109.92430877685547
0.4307861328125,-0.68896484375,-0.4537353515625,3.295898199081421,107.54393768310547,-111.45018768310547
0.3126220703125,-0.79736328125,-0.6070556640625,-10.925292015075684,101.19628143310547,-110.83983612060547
0.293212890625,-0.661865234375,-0.482666015625,-3.601073980331421,100.21971893310547,-111.87743377685547
0.2208251953125,-0.8125,-0.5972900390625,-10.559081077575684,99.79247283935547,-112.91503143310547
0.0943603515625,-0.896240234375,-0.6868896484375,-12.451170921325684,91.36962127685547,-109.19188690185547
0.07275390625,-0.730224609375,-0.4813232421875,4.08935546875,88.01268768310547,-111.75536346435547
0.0313720703125,-0.9036865234375,-0.6143798828125,-11.901854515075684,88.74510955810547,-112.24364471435547
-0.09814453125,-0.897216796875,-0.693603515625,-2.38037109375,82.45848846435547,-109.68016815185547
-0.119140625,-0.8009033203125,-0.4666748046875,5.310058116912842,80.99364471435547,-107.72704315185547
-0.1917724609375,-0.91015625,-0.5916748046875,-5.981444835662842,86.91405487060547,-109.25292205810547
-0.3155517578125,-0.9007568359375,-0.681396484375,7.690429210662842,79.40673828125,-100.64696502685547
-0.3187255859375,-0.75146484375,-0.4661865234375,-4.5166015625,80.2001953125,-104.73632049560547
-0.4390869140625,-0.9305419921875,-0.6566162109375,-4.57763671875,81.97020721435547,-96.61864471435547
-0.4718017578125,-0.847900390625,-0.5531005859375,-8.72802734375,75.37841796875,-87.64647674560547
-0.4822998046875,-0.794921875,-0.466796875,-19.34814453125,73.6083984375,-90.33202362060547
-0.5543212890625,-0.8519287109375,-0.542724609375,-15.319823265075684,72.3876953125,-86.66991424560547
-0.5924072265625,-0.826904296875,-0.5513916015625,-15.624999046325684,68.17626953125,-81.48192596435547
-0.6138916015625,-0.7012939453125,-0.4285888671875,-18.61572265625,65.5517578125,-78.125
-0.6639404296875,-0.781494140625,-0.4833984375,-6.347655773162842,66.7724609375,-75.37841796875
-0.686279296875,-0.7979736328125,-0.4822998046875,-2.38037109375,59.326168060302734,-68.7255859375
-0.71875,-0.7083740234375,-0.389892578125,-4.45556640625,54.992671966552734,-64.02587890625
-0.747314453125,-0.7320556640625,-0.454345703125,2.929687261581421,50.659175872802734,-57.434078216552734
-0.7689208984375,-0.7061767578125,-0.41650390625,-1.4038084745407104,42.602535247802734,-47.119136810302734
-0.762451171875,-0.66357421875,-0.3575439453125,-0.6103515625,39.00146484375,-41.198726654052734
-0.7730712890625,-0.673583984375,-0.3544921875,-0.4272460639476776,35.33935546875,-36.1328125
-0.7808837890625,-0.66552734375,-0.3289794921875,-6.042479991912842,31.005857467651367,-29.174802780151367
-0.7860107421875,-0.59521484375,-0.3055419921875,-2.13623046875,30.334470748901367,-24.658201217651367
-0.78125,-0.5980224609375,-0.2923583984375,-4.8828125,30.944822311401367,-24.475095748901367
-0.8043212890625,-0.5885009765625,-0.271240234375,-12.268065452575684,28.503416061401367,-24.230955123901367
-0.810791015625,-0.5677490234375,-0.266357421875,-4.94384765625,27.526853561401367,-20.507810592651367
-0.8280029296875,-0.5338134765625,-0.22412109375,-4.08935546875,27.893064498901367,-19.95849609375
-0.8453369140625,-0.5418701171875,-0.228515625,-7.019042491912842,25.451658248901367,-20.385740280151367
-0.8641357421875,-0.522705078125,-0.20556640625,0.9155272841453552,22.521970748901367,-16.6015625
-0.8555908203125,-0.4951171875,-0.204345703125,8.72802734375,24.108884811401367,-13.732909202575684
-0.8641357421875,-0.4755859375,-0.1697998046875,12.756346702575684,15.563963890075684,-9.58251953125
-0.860107421875,-0.5081787109375,-0.17333984375,12.023924827575684,15.441893577575684,-9.6435546875
-0.8594970703125,-0.518310546875,-0.2044677734375,7.934569835662842,10.864256858825684,-7.629394054412842
-0.871826171875,-0.49853515625,-0.171630859375,8.7890625,8.1787109375,-5.065917491912842
-0.8670654296875,-0.4759521484375,-0.1683349609375,14.648436546325684,9.3994140625,-2.563476324081421
-0.850830078125,-0.510986328125,-0.1761474609375,6.958007335662842,6.591796398162842,-3.112792730331421
-0.8699951171875,-0.509521484375,-0.173583984375,-0.7934569716453552,2.990722417831421,-3.234863042831421
-0.880859375,-0.466796875,-0.1759033203125,4.0283203125,2.868652105331421,-0.9765624403953552
-0.860107421875,-0.4957275390625,-0.1761474609375,1.8920897245407104,2.197265625,-0.7324218153953552
-0.872314453125,-0.475341796875,-0.1612548828125,-3.967284917831421,0.30517578125,-1.2817381620407104
-0.8697509765625,-0.4681396484375,-0.16064453125,-0.6713866591453552,-0.6713866591453552,0.0610351525247097
-0.867431640625,-0.4827880859375,-0.1634521484375,-0.4272460639476776,-0.4882812201976776,-0.0610351525247097
-0.870849609375,-0.4698486328125,-0.164794921875,0.6103515625,-0.7934569716453552,-0.4882812201976776
-0.8653564453125,-0.478271484375,-0.1611328125,2.13623046875,-1.220703125,0.1220703050494194
-0.8653564453125,-0.4794921875,-0.14501953125,-1.2817381620407104,-2.01416015625,-0.9765624403953552
-0.8726806640625,-0.4595947265625,-0.144775390625,1.220703125,-0.7324218153953552,-0.4882812201976776
-0.8648681640625,-0.4857177734375,-0.1558837890625,0.3662109076976776,-0.6103515625,0.0610351525247097
-0.8673095703125,-0.4832763671875,-0.140625,-5.859374523162842,-2.01416015625,-0.6103515625
-0.8775634765625,-0.468505859375,-0.1282958984375,-4.7607421875,-1.4648436307907104,-0.6713866591453552
-0.873046875,-0.4752197265625,-0.16259765625,-1.4038084745407104,0.1831054538488388,0.4882812201976776
-0.8634033203125,-0.4649658203125,-0.1357421875,-8.72802734375,0.0,-1.8920897245407104
-0.8775634765625,-0.447509765625,-0.1297607421875,-6.652831554412842,1.0986328125,-2.868652105331421
-0.875244140625,-0.4664306640625,-0.1583251953125,-1.15966796875,1.7089842557907104,-2.44140625
-0.8720703125,-0.47509765625,-0.1485595703125,-0.9155272841453552,1.15966796875,-2.868652105331421
-0.8763427734375,-0.458740234375,-0.138916015625,2.38037109375,1.2817381620407104,-2.746581792831421
-0.870849609375,-0.470703125,-0.1448974609375,2.624511480331421,1.3427733182907104,-2.685546636581421
-0.876220703125,-0.4736328125,-0.14697265625,0.6713866591453552,0.7324218153953552,-2.3193359375
-0.87841796875,-0.4737548828125,-0.140625,0.6713866591453552,0.1220703050494194,-1.6479490995407104
-0.87353515625,-0.4796142578125,-0.1395263671875,0.1220703050494194,-0.0610351525247097,-1.220703125
-0.8739013671875,-0.48486328125,-0.1488037109375,-2.13623046875,0.0610351525247097,-0.7934569716453552
-0.878173828125,-0.4642333984375,-0.1416015625,-0.8544921278953552,0.2441406100988388,-0.4882812201976776
-0.87109375,-0.46533203125,-0.137451171875,-1.5869139432907104,0.6713866591453552,-0.3662109076976776
-0.872314453125,-0.4658203125,-0.1431884765625,-1.8310545682907104,0.6103515625,-0.7324218153953552
-0.8768310546875,-0.466064453125,-0.145263671875,0.4272460639476776,0.6713866591453552,-0.6103515625
-0.8739013671875,-0.4676513671875,-0.142822265625,1.6479490995407104,0.6103515625,-0.4272460639476776
-0.875244140625,-0.4649658203125,-0.14111328125,1.8310545682907104,0.9155272841453552,-0.4272460639476776
-0.8765869140625,-0.4661865234375,-0.142333984375,2.807616949081421,0.6713866591453552,-0.1220703050494194
-0.8763427734375,-0.466552734375,-0.1424560546875,1.0986328125,0.2441406100988388,-0.2441406100988388
-0.8785400390625,-0.458740234375,-0.1378173828125,0.3662109076976776,0.0,-0.30517578125
-0.8775634765625,-0.453369140625,-0.1419677734375,1.7700194120407104,0.6103515625,-0.2441406100988388
-0.8729248046875,-0.466796875,-0.145751953125,0.4272460639476776,0.7324218153953552,-0.8544921278953552
-0.876708984375,-0.459716796875,-0.1392822265625,-0.9765624403953552,0.2441406100988388,-1.220703125
-0.87890625,-0.453369140625,-0.139892578125,1.4648436307907104,0.6103515625,-1.220703125
-0.9378662109375,-0.9520263671875,-0.6907958984375,25.512693405151367,-122.92479705810547,121.70409393310547
-0.956298828125,-1.0020751953125,-0.714599609375,23.498533248901367,-144.71435546875,144.8974609375
-1.03857421875,-1.12890625,-0.8682861328125,25.390623092651367,-174.07225036621094,174.49949645996094
-1.10009765625,-1.0438232421875,-0.8529052734375,38.2080078125,-204.34568786621094,201.66014099121094
-0.8651123046875,-1.10693359375,-0.9139404296875,30.395505905151367,-226.80662536621094,209.59471130371094
-0.6219482421875,-1.0087890625,-0.78515625,13.366698265075684,-237.42674255371094,209.41160583496094
-0.4542236328125,-0.9588623046875,-0.7144775390625,11.657713890075684,-245.60545349121094,214.23338317871094
-0.361083984375,-0.8231201171875,-0.6336669921875,-0.7324218153953552,-250.85447692871094,210.63230895996094
-0.2664794921875,-0.70361328125,-0.5517578125,-20.629880905151367,-246.21580505371094,205.01707458496094
-0.142333984375,-0.5599365234375,-0.4969482421875,-12.023924827575684,-233.03221130371094,198.42527770996094
-0.0965576171875,-0.643310546875,-0.5384521484375,-6.469726085662842,-226.31834411621094,187.56101989746094
-0.014892578125,-0.326416015625,-0.2381591796875,2.868652105331421,-210.20506286621094,168.09080505371094
0.2818603515625,-0.1285400390625,-0.056640625,29.052732467651367,-183.59373474121094,144.10400390625
0.4202880859375,-0.4871826171875,-0.3765869140625,22.705076217651367,-167.35838317871094,121.58202362060547
0.329345703125,-0.256103515625,-0.0240478515625,13.549803733825684,-144.04296875,107.11669158935547
0.622314453125,-0.0418701171875,0.21533203125,35.7666015625,-107.05565643310547,86.91405487060547
0.6771240234375,-0.2581787109375,0.0655517578125,18.73779296875,-81.29882049560547,63.232418060302734
0.7279052734375,-0.2412109375,0.1712646484375,-2.25830078125,-56.579586029052734,46.997066497802734
0.8265380859375,-0.1737060546875,0.2406005859375,-18.12744140625,-26.550291061401367,29.052732467651367
0.8121337890625,-0.24072265625,0.115234375,-28.869626998901367,-4.57763671875,12.390135765075684
0.8531494140625,-0.2449951171875,0.0264892578125,-26.245115280151367,7.446288585662842,1.5258787870407104
0.871337890625,-0.2603759765625,-0.0421142578125,-18.85986328125,12.695311546325684,-6.774901866912842
0.88671875,-0.2821044921875,-0.072021484375,-0.6713866591453552,14.099120140075684,-9.82666015625
0.907470703125,-0.2969970703125,-0.0887451171875,6.469726085662842,14.892577171325684,-10.070799827575684
0.9368896484375,-0.2603759765625,-0.0263671875,4.5166015625,18.85986328125,-12.207030296325684
0.9024658203125,-0.300537109375,-0.0274658203125,1.8920897245407104,24.414060592651367,-14.648436546325684
0.873046875,-0.3040771484375,-0.0413818359375,-2.929687261581421,28.991697311401367,-19.1650390625
0.8592529296875,-0.2852783203125,-0.038330078125,-3.723144292831421,34.85107421875,-26.428220748901367
0.8470458984375,-0.2755126953125,-0.018798828125,-6.591796398162842,44.433589935302734,-35.64453125
0.8184814453125,-0.306396484375,-0.0665283203125,-6.469726085662842,54.809566497802734,-43.884273529052734
0.802490234375,-0.3310546875,-0.11181640625,-8.056640625,63.110347747802734,-51.208492279052734
0.7939453125,-0.2935791015625,-0.1021728515625,-7.019042491912842,72.265625,-61.401363372802734
0.73193359375,-0.4114990234375,-0.18359375,-3.723144292831421,79.52880859375,-68.54248046875
0.71826171875,-0.461181640625,-0.226318359375,-7.385253429412842,83.25194549560547,-76.416015625
0.6990966796875,-0.4156494140625,-0.21533203125,-6.896972179412842,86.79198455810547,-81.90917205810547
0.6287841796875,-0.5159912109375,-0.2747802734375,-2.685546636581421,92.52928924560547,-87.40233612060547
0.5758056640625,-0.5699462890625,-0.3519287109375,-5.615233898162842,96.19139862060547,-92.89550018310547
0.53662109375,-0.619873046875,-0.392822265625,-5.859374523162842,97.16796112060547,-95.21483612060547
0.48828125,-0.572265625,-0.3427734375,-6.652831554412842,100.21971893310547,-101.19628143310547
0.415771484375,-0.73779296875,-0.50732421875,-7.385253429412842,100.21971893310547,-102.72216033935547
0.3572998046875,-0.7344970703125,-0.5673828125,-11.108397483825684,94.23827362060547,-103.02733612060547
0.2874755859375,-0.67529296875,-0.4537353515625,-4.39453125,93.50585174560547,-106.20116424560547
0.2362060546875,-0.8140869140625,-0.5592041015625,0.2441406100988388,95.76415252685547,-103.88182830810547
0.1534423828125,-0.9102783203125,-0.6929931640625,-2.44140625,88.62303924560547,-96.49657440185547
0.1146240234375,-0.750244140625,-0.54150390625,4.94384765625,86.60887908935547,-96.06932830810547
0.052001953125,-0.9052734375,-0.6756591796875,4.150390625,86.24266815185547,-92.52928924560547
-0.0101318359375,-0.8890380859375,-0.641357421875,-4.57763671875,80.81053924560547,-87.76854705810547
-0.0322265625,-0.833984375,-0.60205078125,3.417968511581421,79.2236328125,-86.30370330810547
-0.09716796875,-0.8997802734375,-0.632080078125,-3.845214605331421,73.79150390625,-85.32714080810547
-0.148681640625,-0.8577880859375,-0.593505859375,-12.817381858825684,74.21875,-84.04540252685547
-0.1898193359375,-0.873046875,-0.664306640625,1.4038084745407104,70.556640625,-78.67431640625
-0.2471923828125,-0.7847900390625,-0.5206298828125,-10.986327171325684,67.87109375,-79.77294921875
-0.316650390625,-0.8299560546875,-0.585693359375,0.30517578125,73.974609375,-77.45361328125
-0.36328125,-0.89501953125,-0.675048828125,8.72802734375,66.83349609375,-70.37353515625
-0.431640625,-0.7476806640625,-0.4969482421875,-6.408690929412842,62.744136810302734,-70.80078125
-0.47021484375,-0.781005859375,-0.5738525390625,7.324218273162842,67.2607421875,-68.7255859375
-0.4779052734375,-0.84619140625,-0.5958251953125,-5.859374523162842,60.668941497802734,-63.537593841552734
-0.5179443359375,-0.756103515625,-0.501708984375,-10.986327171325684,58.715816497802734,-61.340328216552734
-0.5748291015625,-0.80126953125,-0.5159912109375,-8.48388671875,53.466793060302734,-56.762691497802734
-0.5999755859375,-0.7706298828125,-0.4444580078125,-17.333984375,49.194332122802734,-55.114742279052734
-0.619140625,-0.7669677734375,-0.5269775390625,-8.97216796875,46.813961029052734,-51.086421966552734
-0.64013671875,-0.7344970703125,-0.48193359375,-4.39453125,41.259761810302734,-46.630855560302734
-0.6353759765625,-0.680419921875,-0.421875,-1.0986328125,41.564937591552734,-44.799800872802734
-0.6590576171875,-0.7218017578125,-0.472900390625,6.591796398162842,40.710445404052734,-41.992183685302734
-0.68798828125,-0.6929931640625,-0.4046630859375,9.33837890625,34.5458984375,-38.2080078125
-0.7108154296875,-0.6414794921875,-0.3582763671875,5.676269054412842,33.935546875,-35.70556640625
-0.722412109375,-0.65771484375,-0.3822021484375,8.85009765625,36.43798828125,-32.04345703125
-0.7449951171875,-0.6595458984375,-0.38427734375,4.57763671875,33.63037109375,-28.381345748901367
-0.7591552734375,-0.6121826171875,-0.3399658203125,2.197265625,31.677244186401367,-26.733396530151367
-0.764892578125,-0.613037109375,-0.3553466796875,2.13623046875,30.517576217651367,-24.963376998901367
-0.77587890625,-0.6104736328125,-0.3370361328125,-2.197265625,27.160642623901367,-22.949216842651367
-0.7823486328125,-0.5843505859375,-0.320068359375,-1.4648436307907104,25.756834030151367,-20.812986373901367
-0.79150390625,-0.576416015625,-0.3341064453125,0.4882812201976776,23.437498092651367,-19.10400390625
-0.8045654296875,-0.5596923828125,-0.29833984375,-2.13623046875,22.216794967651367,-17.08984375
-0.8046875,-0.542236328125,-0.2740478515625,-1.6479490995407104,22.094724655151367,-15.869139671325684
-0.806396484375,-0.52880859375,-0.2861328125,-0.4882812201976776,23.315427780151367,-17.02880859375
-0.8116455078125,-0.544677734375,-0.2723388671875,-3.784179449081421,22.094724655151367,-17.2119140625
-0.8289794921875,-0.5035400390625,-0.2313232421875,-3.234863042831421,21.301267623901367,-16.41845703125
-0.8280029296875,-0.513671875,-0.235595703125,-2.38037109375,22.705076217651367,-16.54052734375
-0.8408203125,-0.5225830078125,-0.242431640625,-4.94384765625,23.437498092651367,-16.41845703125
-0.8438720703125,-0.509033203125,-0.2127685546875,-5.0048828125,21.606443405151367,-15.563963890075684
-0.847900390625,-0.4935302734375,-0.1807861328125,-5.676269054412842,20.812986373901367,-15.319823265075684
-0.85693359375,-0.495849609375,-0.1787109375,-5.737304210662842,20.080564498901367,-13.854979515075684
-0.86279296875,-0.4918212890625,-0.1898193359375,-1.2817381620407104,18.98193359375,-11.413573265075684
-0.8692626953125,-0.4674072265625,-0.1741943359375,0.30517578125,17.9443359375,-11.291502952575684
-0.880859375,-0.4736328125,-0.1591796875,0.6713866591453552,15.930174827575684,-10.314940452575684
-0.881591796875,-0.4844970703125,-0.1805419921875,5.187987804412842,14.709471702575684,-8.48388671875
-0.866943359375,-0.4998779296875,-0.1785888671875,12.878417015075684,12.817381858825684,-5.065917491912842
-0.8746337890625,-0.4639892578125,-0.1488037109375,10.925292015075684,11.596678733825684,-5.920409679412842
-0.8809814453125,-0.4713134765625,-0.160888671875,9.033203125,11.413573265075684,-6.774901866912842
-0.880126953125,-0.4774169921875,-0.1788330078125,10.437010765075684,9.765625,-4.33349609375
-0.87109375,-0.4842529296875,-0.1754150390625,10.070799827575684,7.568358898162842,-2.3193359375
-0.8756103515625,-0.47802734375,-0.15380859375,6.530761241912842,5.371093273162842,-2.0751953125
-0.878662109375,-0.4658203125,-0.1549072265625,3.479003667831421,4.21142578125,-1.7700194120407104
-0.876708984375,-0.47314453125,-0.163330078125,1.2817381620407104,2.990722417831421,-0.9155272841453552
-0.88427734375,-0.4644775390625,-0.1632080078125,-1.03759765625,1.5258787870407104,-0.4272460639476776
-0.8841552734375,-0.4591064453125,-0.16162109375,0.4882812201976776,1.0986328125,0.7324218153953552
-0.8731689453125,-0.4658203125,-0.161376953125,1.3427733182907104,0.6713866591453552,0.6103515625
-0.875244140625,-0.4635009765625,-0.1510009765625,0.4882812201976776,-0.0610351525247097,-0.0610351525247097
-0.873046875,-0.46435546875,-0.15283203125,0.7324218153953552,-0.4882812201976776,0.0
-0.87744140625,-0.4530029296875,-0.148193359375,3.417968511581421,-0.54931640625,0.9765624403953552
-0.876220703125,-0.4666748046875,-0.1544189453125,5.0048828125,-0.1220703050494194,0.8544921278953552
-0.8770751953125,-0.476806640625,-0.1474609375,-0.30517578125,-1.15966796875,-0.30517578125
-0.8828125,-0.4512939453125,-0.1292724609375,-1.5869139432907104,-1.5869139432907104,-0.1220703050494194
-0.8792724609375,-0.453125,-0.1455078125,1.8310545682907104,-0.7934569716453552,1.220703125
-0.876708984375,-0.4700927734375,-0.14599609375,-1.8920897245407104,-1.15966796875,0.9155272841453552
-0.8836669921875,-0.452392578125,-0.1317138671875,-4.21142578125,-1.5258787870407104,0.1831054538488388
-0.8802490234375,-0.4521484375,-0.1431884765625,-1.4038084745407104,-0.54931640625,0.6713866591453552
-0.875732421875,-0.4595947265625,-0.142822265625,-1.7089842557907104,-0.1831054538488388,0.1831054538488388
-0.882568359375,-0.4564208984375,-0.134765625,-2.3193359375,-0.3662109076976776,-0.4272460639476776
-0.8834228515625,-0.4501953125,-0.138916015625,0.1220703050494194,-0.0610351525247097,-0.6103515625
-0.8780517578125,-0.4576416015625,-0.14501953125,-0.2441406100988388,0.30517578125,-0.7324218153953552
-0.8826904296875,-0.4566650390625,-0.13916015625,-0.1831054538488388,0.2441406100988388,-0.8544921278953552
-0.8809814453125,-0.45361328125,-0.1453857421875,0.7934569716453552,0.6103515625,-0.4272460639476776
-0.88134765625,-0.4560546875,-0.1368408203125,1.7700194120407104,0.6713866591453552,-0.4882812201976776
-0.879150390625,-0.4693603515625,-0.13232421875,0.0610351525247097,0.4272460639476776,-0.7324218153953552
-0.8802490234375,-0.457275390625,-0.1407470703125,-1.4038084745407104,-0.0610351525247097,-1.03759765625
-0.878662109375,-0.4625244140625,-0.1407470703125,0.0,0.2441406100988388,-0.54931640625
-0.8753662109375,-0.46240234375,-0.1451416015625,-1.3427733182907104,0.6103515625,-0.3662109076976776
-1.0081787109375,-0.95361328125,-0.6522216796875,45.898433685302734,-126.40380096435547,148.01025390625
-1.0521240234375,-1.059326171875,-0.76416015625,58.471675872802734,-156.06689453125,177.00193786621094
-0.9927978515625,-1.0286865234375,-0.78125,47.973628997802734,-181.51853942871094,194.33592224121094
-0.8245849609375,-1.1102294921875,-0.822021484375,36.80419921875,-199.64598083496094,206.42088317871094
-0.7176513671875,-1.1357421875,-0.8311767578125,28.808591842651367,-218.44480895996094,213.80613708496094
-0.5557861328125,-0.937255859375,-0.615234375,5.371093273162842,-228.27146911621094,212.89060974121094
-0.316650390625,-0.8428955078125,-0.6380615234375,7.019042491912842,-227.05076599121094,211.42576599121094
-0.1265869140625,-0.7962646484375,-0.5911865234375,-0.4882812201976776,-226.25730895996094,204.77293395996094
-0.0770263671875,-0.6741943359375,-0.488037109375,-4.150390625,-222.16795349121094,195.92283630371094
0.0396728515625,-0.4976806640625,-0.27783203125,-8.11767578125,-213.74510192871094,180.78611755371094
0.1939697265625,-0.5306396484375,-0.3824462890625,-5.0048828125,-187.49998474121094,154.35791015625
0.211669921875,-0.2926025390625,-0.11376953125,-1.4038084745407104,-167.60252380371094,137.0849609375
0.3958740234375,-0.3277587890625,-0.162109375,5.554198741912842,-148.13232421875,120.54442596435547
0.4354248046875,-0.4022216796875,-0.1771240234375,-10.131834983825684,-132.99560546875,103.27147674560547
0.513427734375,-0.2523193359375,0.021728515625,-10.986327171325684,-107.17772674560547,92.40721893310547
0.6729736328125,-0.1446533203125,0.1666259765625,1.8310545682907104,-77.45361328125,74.70703125
0.773681640625,-0.259521484375,0.081787109375,-2.807616949081421,-56.762691497802734,57.739253997802734
0.814208984375,-0.2020263671875,0.21240234375,-13.488768577575684,-36.56005859375,43.823238372802734
0.8865966796875,-0.1390380859375,0.2413330078125,-11.535643577575684,-13.977049827575684,25.451658248901367
0.8629150390625,-0.2508544921875,0.0841064453125,-11.413573265075684,-1.4038084745407104,10.681151390075684
0.863037109375,-0.2291259765625,0.0616455078125,-10.559081077575684,5.676269054412842,1.7700194120407104
0.871826171875,-0.2291259765625,0.02685546875,-6.958007335662842,12.634276390075684,-5.065917491912842
0.8841552734375,-0.27490234375,-0.0340576171875,-8.85009765625,15.808104515075684,-7.629394054412842
0.8934326171875,-0.2696533203125,-0.0338134765625,-6.835937023162842,17.15087890625,-9.94873046875
0.9146728515625,-0.2701416015625,-0.0213623046875,-6.530761241912842,19.53125,-12.573241233825684
0.919189453125,-0.2667236328125,-0.001708984375,-3.601073980331421,22.155759811401367,-16.357421875
0.9068603515625,-0.2857666015625,-0.0120849609375,-0.6103515625,24.047849655151367,-20.690916061401367
0.9061279296875,-0.2916259765625,-0.030029296875,-2.13623046875,26.611326217651367,-24.963376998901367
0.89697265625,-0.27392578125,-0.0003662109375,-1.220703125,31.921384811401367,-31.188962936401367
0.8658447265625,-0.2841796875,0.0076904296875,-0.0610351525247097,39.48974609375,-38.75732421875
0.845703125,-0.327880859375,-0.03564453125,1.5258787870407104,47.546382904052734,-44.494625091552734
0.82861328125,-0.3355712890625,-0.0682373046875,-3.784179449081421,53.833003997802734,-51.940914154052734
0.8072509765625,-0.322509765625,-0.080810546875,-3.784179449081421,61.157222747802734,-60.852046966552734
0.7584228515625,-0.36962890625,-0.11572265625,4.57763671875,68.05419921875,-70.25146484375
0.728515625,-0.446044921875,-0.158203125,2.746581792831421,74.89013671875,-76.59912109375
0.7110595703125,-0.4169921875,-0.1658935546875,4.39453125,78.7353515625,-81.84813690185547
0.6566162109375,-0.4696044921875,-0.2117919921875,8.60595703125,85.02196502685547,-89.78270721435547
0.5892333984375,-0.5501708984375,-0.2896728515625,9.033203125,87.40233612060547,-97.10692596435547
0.535400390625,-0.5472412109375,-0.27587890625,13.183592796325684,91.91893768310547,-103.88182830810547
0.4752197265625,-0.5870361328125,-0.300537109375,13.916014671325684,98.69384002685547,-108.21532440185547
0.4276123046875,-0.7049560546875,-0.4788818359375,8.23974609375,98.69384002685547,-110.22948455810547
0.3597412109375,-0.7635498046875,-0.5455322265625,5.0048828125,92.71239471435547,-110.29051971435547
0.3206787109375,-0.6937255859375,-0.4510498046875,5.371093273162842,93.68895721435547,-110.77880096435547
0.2723388671875,-0.844970703125,-0.629638671875,-1.03759765625,91.67479705810547,-108.64257049560547
0.1829833984375,-0.822509765625,-0.570068359375,-0.6713866591453552,85.93749237060547,-106.56737518310547
0.138671875,-0.770263671875,-0.4527587890625,-0.3662109076976776,89.47753143310547,-106.75048065185547
0.0897216796875,-0.89111328125,-0.646240234375,-1.15966796875,89.90477752685547,-104.37010955810547
-0.019775390625,-0.931640625,-0.65673828125,-4.57763671875,79.16259765625,-101.01317596435547
-0.0665283203125,-0.7479248046875,-0.4595947265625,-0.1831054538488388,81.05467987060547,-105.10253143310547
-0.10986328125,-0.9156494140625,-0.614501953125,0.8544921278953552,83.74022674560547,-102.72216033935547
-0.1820068359375,-0.914794921875,-0.642578125,-9.58251953125,78.7353515625,-100.34178924560547
-0.25439453125,-0.7923583984375,-0.5302734375,1.4038084745407104,75.439453125,-97.90038299560547
-0.2967529296875,-0.8748779296875,-0.5811767578125,12.695311546325684,76.11083984375,-97.71727752685547
-0.3297119140625,-0.9073486328125,-0.6370849609375,-4.57763671875,73.1201171875,-95.09276580810547
-0.4453125,-0.84033203125,-0.6119384765625,11.779784202575684,71.47216796875,-86.24266815185547
-0.4541015625,-0.8021240234375,-0.474853515625,3.784179449081421,70.86181640625,-83.37401580810547
-0.5084228515625,-0.82861328125,-0.588134765625,1.3427733182907104,70.9228515625,-81.29882049560547
-0.575927734375,-0.87646484375,-0.61962890625,4.21142578125,62.255855560302734,-71.96044921875
-0.6038818359375,-0.731689453125,-0.4608154296875,-4.5166015625,58.349605560302734,-68.603515625
-0.6248779296875,-0.7606201171875,-0.53173828125,-2.807616949081421,58.654781341552734,-63.842769622802734
-0.6531982421875,-0.79833984375,-0.515380859375,-0.30517578125,51.818843841552734,-56.152339935302734
-0.6552734375,-0.729736328125,-0.4969482421875,-3.723144292831421,44.372554779052734,-45.593257904052734
-0.6815185546875,-0.7255859375,-0.4705810546875,-6.652831554412842,36.376953125,-39.00146484375
-0.703125,-0.6610107421875,-0.40869140625,-11.779784202575684,34.7900390625,-34.0576171875
-0.7093505859375,-0.6719970703125,-0.434326171875,-7.324218273162842,34.60693359375,-32.04345703125
-0.7122802734375,-0.683837890625,-0.410400390625,-7.568358898162842,31.738279342651367,-29.174802780151367
-0.720703125,-0.6343994140625,-0.373291015625,-3.173827886581421,30.212400436401367,-27.160642623901367
-0.736083984375,-0.6202392578125,-0.3763427734375,4.57763671875,27.526853561401367,-24.841306686401367
-0.7637939453125,-0.5987548828125,-0.3267822265625,2.563476324081421,26.000974655151367,-23.498533248901367
-0.772216796875,-0.575439453125,-0.342529296875,8.4228515625,26.855466842651367,-21.179197311401367
-0.7772216796875,-0.6119384765625,-0.35009765625,8.36181640625,24.658201217651367,-19.59228515625
-0.7955322265625,-0.5643310546875,-0.2960205078125,4.150390625,22.338865280151367,-18.49365234375
-0.7987060546875,-0.5430908203125,-0.2752685546875,1.0986328125,23.681638717651367,-18.6767578125
-0.8043212890625,-0.5496826171875,-0.3099365234375,-3.906249761581421,23.925779342651367,-20.080564498901367
-0.8204345703125,-0.5286865234375,-0.2740478515625,-9.33837890625,23.559568405151367,-20.263669967651367
-0.8287353515625,-0.509521484375,-0.23291015625,-10.498045921325684,25.207517623901367,-20.507810592651367
-0.8343505859375,-0.5311279296875,-0.2562255859375,-11.413573265075684,24.475095748901367,-19.8974609375
-0.83984375,-0.52294921875,-0.2403564453125,-9.521484375,22.644041061401367,-18.1884765625
-0.8519287109375,-0.49462890625,-0.198974609375,-9.8876953125,22.644041061401367,-18.9208984375
-0.8531494140625,-0.498046875,-0.2109375,-8.056640625,22.399900436401367,-19.47021484375
-0.865478515625,-0.5015869140625,-0.2073974609375,-5.615233898162842,19.775390625,-17.15087890625
-0.8662109375,-0.4844970703125,-0.1883544921875,0.0,18.1884765625,-14.465331077575684
-0.8614501953125,-0.4791259765625,-0.17333984375,0.0,16.6015625,-14.404295921325684
-0.87109375,-0.473876953125,-0.181396484375,-0.8544921278953552,14.770506858825684,-13.061522483825684
-0.880615234375,-0.4873046875,-0.178955078125,2.01416015625,12.878417015075684,-9.82666015625
-0.8741455078125,-0.4635009765625,-0.1756591796875,5.310058116912842,11.474608421325684,-8.30078125
-0.8753662109375,-0.463623046875,-0.159912109375,5.310058116912842,11.474608421325684,-7.812499523162842
-0.88330078125,-0.48046875,-0.1727294921875,3.479003667831421,10.437010765075684,-7.446288585662842
-0.888671875,-0.4730224609375,-0.1744384765625,5.187987804412842,8.30078125,-5.676269054412842
-0.88037109375,-0.4610595703125,-0.1678466796875,10.314940452575684,7.324218273162842,-3.112792730331421
-0.8746337890625,-0.4625244140625,-0.162109375,8.544921875,6.408690929412842,-3.540038824081421
-0.8873291015625,-0.4677734375,-0.1419677734375,4.45556640625,4.150390625,-3.662109136581421
-0.892822265625,-0.4595947265625,-0.157470703125,7.141112804412842,3.662109136581421,-1.03759765625
-0.876220703125,-0.47412109375,-0.173828125,5.187987804412842,2.197265625,0.1220703050494194
-0.8829345703125,-0.457275390625,-0.1539306640625,1.8920897245407104,1.0986328125,0.2441406100988388
-0.8863525390625,-0.4483642578125,-0.1402587890625,2.25830078125,1.5869139432907104,0.6713866591453552
-0.8857421875,-0.4576416015625,-0.1444091796875,1.7089842557907104,1.220703125,0.9155272841453552
-0.8853759765625,-0.4613037109375,-0.15185546875,0.7324218153953552,-0.0610351525247097,0.8544921278953552
-0.885009765625,-0.4493408203125,-0.142822265625,1.03759765625,-0.4272460639476776,1.2817381620407104
-0.8804931640625,-0.4486083984375,-0.14404296875,1.8310545682907104,0.1831054538488388,1.2817381620407104
-0.8797607421875,-0.4561767578125,-0.1435546875,0.1220703050494194,0.0610351525247097,0.6713866591453552
-0.8865966796875,-0.44921875,-0.1346435546875,-1.2817381620407104,-0.4272460639476776,0.2441406100988388
-0.884765625,-0.446044921875,-0.146728515625,0.1831054538488388,-0.0610351525247097,0.4882812201976776
-0.8807373046875,-0.4530029296875,-0.1337890625,-2.25830078125,-0.3662109076976776,0.0610351525247097
-0.8829345703125,-0.443359375,-0.143798828125,-1.5258787870407104,-0.3662109076976776,0.1220703050494194
-0.88232421875,-0.441162109375,-0.1343994140625,-1.03759765625,-0.30517578125,0.0
-0.88232421875,-0.453369140625,-0.15283203125,0.7934569716453552,0.4882812201976776,-0.30517578125
-0.8824462890625,-0.44677734375,-0.131103515625,-1.15966796875,0.0,-0.9765624403953552
-0.8878173828125,-0.43994140625,-0.1209716796875,-0.6103515625,0.2441406100988388,-1.15966796875
-0.880126953125,-0.4476318359375,-0.1453857421875,1.2817381620407104,-0.1220703050494194,-0.7324218153953552
-0.8822021484375,-0.4425048828125,-0.14111328125,1.2817381620407104,0.1831054538488388,-0.4272460639476776
-0.889404296875,-0.45166015625,-0.14111328125,-0.2441406100988388,0.7934569716453552,-1.15966796875
-0.8900146484375,-0.4527587890625,-0.13720703125,-1.5869139432907104,0.4882812201976776,-1.5869139432907104
-0.88671875,-0.4471435546875,-0.132080078125,-1.220703125,0.2441406100988388,-1.15966796875
-0.8858642578125,-0.4404296875,-0.1363525390625,0.9155272841453552,0.3662109076976776,-0.6713866591453552
-0.8828125,-0.4552001953125,-0.144775390625,1.8920897245407104,0.3662109076976776,0.1831054538488388
-0.8817138671875,-0.4505615234375,-0.134521484375,0.7934569716453552,0.0610351525247097,0.1831054538488388
-0.962158203125,-0.9423828125,-0.675537109375,32.8369140625,-112.67089080810547,123.90135955810547
-0.9940185546875,-0.9552001953125,-0.63427734375,26.123044967651367,-129.08935546875,139.46533203125
-0.98193359375,-1.036865234375,-0.7239990234375,21.911619186401367,-152.64892578125,162.96385192871094
-0.9571533203125,-1.1053466796875,-0.820556640625,16.9677734375,-177.00193786621094,185.48582458496094
-0.9512939453125,-1.1309814453125,-0.832275390625,8.36181640625,-199.46287536621094,204.22361755371094
-0.862548828125,-1.121337890625,-0.8455810546875,10.314940452575684,-211.79197692871094,213.74510192871094
-0.7193603515625,-1.0052490234375,-0.720703125,6.835937023162842,-232.42185974121094,221.98484802246094
-0.5723876953125,-0.9266357421875,-0.6676025390625,1.8310545682907104,-233.94773864746094,226.50144958496094
-0.39599609375,-1.0260009765625,-0.8798828125,24.414060592651367,-240.47850036621094,235.29051208496094
-0.412841796875,-0.831787109375,-0.65234375,23.620603561401367,-253.35691833496094,237.30467224121094
-0.1195068359375,-0.373046875,-0.1834716796875,22.033689498901367,-241.45506286621094,228.39353942871094
0.212646484375,-0.5989990234375,-0.421630859375,15.502928733825684,-244.81199645996094,222.35105895996094
0.0853271484375,-0.48046875,-0.19873046875,-8.11767578125,-243.04197692871094,201.84324645996094
0.209228515625,-0.1180419921875,0.158935546875,-0.4272460639476776,-220.82518005371094,176.33055114746094
0.4951171875,-0.14697265625,0.0589599609375,-26.123044967651367,-194.88523864746094,138.3056640625
0.490966796875,-0.2135009765625,0.092041015625,-32.8369140625,-156.06689453125,119.38475799560547
0.6197509765625,0.0643310546875,0.3564453125,-35.33935546875,-104.24803924560547,95.15380096435547
0.683349609375,0.0703125,0.229248046875,-39.85595703125,-57.678218841552734,63.537593841552734
0.665283203125,-0.00146484375,0.1478271484375,-23.315427780151367,-25.878904342651367,33.63037109375
0.737548828125,-0.0543212890625,0.2061767578125,-22.521970748901367,0.9765624403953552,7.324218273162842
0.773681640625,-0.197265625,0.0902099609375,-14.892577171325684,16.66259765625,-5.126952648162842
0.8328857421875,-0.2244873046875,0.0224609375,-4.150390625,17.63916015625,-8.4228515625
0.913330078125,-0.22998046875,0.048583984375,1.8310545682907104,15.014647483825684,-14.160155296325684
1.0023193359375,-0.263916015625,0.073486328125,4.57763671875,14.343260765075684,-14.831542015075684
1.0240478515625,-0.24267578125,0.072021484375,6.469726085662842,13.549803733825684,-14.465331077575684
1.025390625,-0.2135009765625,0.106689453125,6.164550304412842,13.671874046325684,-15.014647483825684
0.9708251953125,-0.208984375,0.134033203125,5.737304210662842,17.2119140625,-17.51708984375
0.921142578125,-0.2042236328125,0.1614990234375,4.82177734375,22.033689498901367,-21.240232467651367
0.878662109375,-0.198974609375,0.1185302734375,2.0751953125,33.0810546875,-29.785154342651367
0.867431640625,-0.214599609375,0.060302734375,2.197265625,43.945308685302734,-38.330078125
0.8507080078125,-0.2017822265625,0.0645751953125,1.03759765625,54.260250091552734,-48.400875091552734
0.8157958984375,-0.240234375,0.030517578125,2.13623046875,65.61279296875,-57.800289154052734
0.7928466796875,-0.294189453125,-0.029296875,4.57763671875,75.3173828125,-65.185546875
0.7806396484375,-0.295166015625,-0.0579833984375,3.967284917831421,83.49608612060547,-72.6318359375
0.7508544921875,-0.3287353515625,-0.090576171875,6.835937023162842,91.18651580810547,-80.99364471435547
0.72802734375,-0.4473876953125,-0.1683349609375,3.906249761581421,95.21483612060547,-86.66991424560547
0.7069091796875,-0.4027099609375,-0.16845703125,4.0283203125,99.54833221435547,-91.61376190185547
0.6513671875,-0.5155029296875,-0.240966796875,1.5258787870407104,102.78319549560547,-94.90966033935547
0.5955810546875,-0.5474853515625,-0.304931640625,-6.835937023162842,104.18700408935547,-98.81591033935547
0.5498046875,-0.589599609375,-0.34619140625,-5.0048828125,106.87255096435547,-100.28075408935547
0.4893798828125,-0.6846923828125,-0.42822265625,-15.014647483825684,106.07909393310547,-102.47801971435547
0.40771484375,-0.6649169921875,-0.4425048828125,-12.695311546325684,104.55321502685547,-103.82079315185547
0.361328125,-0.738037109375,-0.491943359375,-4.5166015625,104.12596893310547,-104.30907440185547
0.2911376953125,-0.77294921875,-0.5333251953125,-9.8876953125,99.91454315185547,-106.68944549560547
0.2037353515625,-0.8118896484375,-0.5853271484375,0.0610351525247097,99.06005096435547,-104.12596893310547
0.1666259765625,-0.81396484375,-0.5789794921875,5.615233898162842,95.45897674560547,-101.56249237060547
0.10009765625,-0.83056640625,-0.6024169921875,-2.44140625,93.99413299560547,-100.40282440185547
0.0269775390625,-0.8642578125,-0.660888671875,11.657713890075684,88.92821502685547,-94.97069549560547
0.011474609375,-0.863037109375,-0.567138671875,0.4882812201976776,86.66991424560547,-93.81102752685547
-0.057861328125,-0.8984375,-0.66796875,-4.45556640625,83.98436737060547,-91.00341033935547
-0.124755859375,-0.862060546875,-0.6396484375,2.38037109375,77.2705078125,-88.07372283935547
-0.1763916015625,-0.8719482421875,-0.55078125,-9.82666015625,75.74462890625,-87.09716033935547
-0.2646484375,-0.896240234375,-0.652587890625,-8.6669921875,75.86669921875,-83.43505096435547
-0.281982421875,-0.81201171875,-0.608154296875,-14.831542015075684,69.76318359375,-80.01708984375
-0.326171875,-0.83447265625,-0.59423828125,-16.9677734375,67.3828125,-79.65087890625
-0.3914794921875,-0.863525390625,-0.587890625,-7.995604991912842,59.997554779052734,-77.880859375
-0.4114990234375,-0.80322265625,-0.478271484375,-12.878417015075684,57.678218841552734,-78.7353515625
-0.4776611328125,-0.818603515625,-0.5675048828125,-10.864256858825684,59.265132904052734,-77.880859375
-0.5015869140625,-0.763671875,-0.5120849609375,0.4882812201976776,54.809566497802734,-72.69287109375
-0.533935546875,-0.762939453125,-0.4503173828125,-5.432128429412842,54.870601654052734,-73.2421875
-0.5858154296875,-0.7958984375,-0.5050048828125,3.784179449081421,56.579586029052734,-68.9697265625
-0.6126708984375,-0.7635498046875,-0.4764404296875,5.493163585662842,50.415035247802734,-63.842769622802734
-0.6541748046875,-0.708984375,-0.4449462890625,1.8310545682907104,49.377437591552734,-62.011714935302734
-0.6937255859375,-0.741455078125,-0.4632568359375,4.82177734375,47.485347747802734,-56.213375091552734
-0.699951171875,-0.7230224609375,-0.4364013671875,0.6713866591453552,43.762203216552734,-50.476070404052734
-0.713623046875,-0.6878662109375,-0.4132080078125,-4.82177734375,40.222164154052734,-45.837398529052734
-0.7376708984375,-0.6826171875,-0.415283203125,-6.774901866912842,35.888671875,-40.527339935302734
-0.750732421875,-0.6514892578125,-0.3900146484375,-12.878417015075684,32.2265625,-34.66796875
-0.766357421875,-0.6356201171875,-0.349365234375,-15.075682640075684,32.16552734375,-30.395505905151367
-0.7579345703125,-0.643798828125,-0.348876953125,-15.441893577575684,31.066892623901367,-28.259275436401367
-0.7752685546875,-0.6173095703125,-0.2923583984375,-17.02880859375,28.442380905151367,-28.015134811401367
-0.798095703125,-0.5889892578125,-0.283935546875,-10.925292015075684,28.747556686401367,-26.977537155151367
-0.8037109375,-0.5858154296875,-0.3406982421875,0.54931640625,28.991697311401367,-23.559568405151367
-0.8065185546875,-0.56640625,-0.292236328125,7.324218273162842,26.855466842651367,-22.583005905151367
-0.8067626953125,-0.548095703125,-0.2457275390625,12.084959983825684,26.428220748901367,-23.742673873901367
-0.8231201171875,-0.564453125,-0.259765625,12.878417015075684,28.442380905151367,-21.850584030151367
-0.8350830078125,-0.5618896484375,-0.289306640625,14.160155296325684,29.052732467651367,-18.37158203125
-0.828125,-0.5325927734375,-0.2481689453125,13.916014671325684,25.329587936401367,-17.15087890625
-0.85791015625,-0.4979248046875,-0.1837158203125,8.48388671875,21.423337936401367,-15.686034202575684
-0.8575439453125,-0.5272216796875,-0.225341796875,11.352538108825684,17.27294921875,-10.314940452575684
-0.85986328125,-0.5321044921875,-0.25732421875,9.33837890625,13.549803733825684,-7.019042491912842
-0.859619140625,-0.4920654296875,-0.2012939453125,6.042479991912842,12.390135765075684,-8.6669921875
-0.8546142578125,-0.485595703125,-0.1934814453125,2.38037109375,10.498045921325684,-7.080077648162842
-0.85546875,-0.517333984375,-0.2208251953125,6.774901866912842,8.056640625,-3.173827886581421
-0.8544921875,-0.531005859375,-0.23193359375,6.164550304412842,6.835937023162842,-2.197265625
-0.850341796875,-0.5018310546875,-0.2030029296875,4.57763671875,5.737304210662842,-2.3193359375
-0.8541259765625,-0.4915771484375,-0.1943359375,3.723144292831421,4.69970703125,-1.7700194120407104
-0.8514404296875,-0.507080078125,-0.2183837890625,4.08935546875,3.662109136581421,1.220703125
-0.8526611328125,-0.5081787109375,-0.1995849609375,0.9765624403953552,1.8310545682907104,2.929687261581421
-0.8568115234375,-0.493408203125,-0.1854248046875,-6.958007335662842,0.3662109076976776,2.624511480331421
-0.8634033203125,-0.471923828125,-0.1820068359375,-7.507323741912842,1.5258787870407104,4.150390625
-0.8525390625,-0.5048828125,-0.20068359375,-11.230467796325684,1.0986328125,3.540038824081421
-0.8680419921875,-0.4749755859375,-0.17822265625,-10.559081077575684,0.2441406100988388,1.4648436307907104
-0.86962890625,-0.4808349609375,-0.1851806640625,-5.432128429412842,0.4272460639476776,1.5869139432907104
-0.868896484375,-0.4808349609375,-0.1845703125,-4.2724609375,-0.4882812201976776,0.3662109076976776
-0.8648681640625,-0.475830078125,-0.18212890625,-1.0986328125,-0.3662109076976776,-0.4272460639476776
-0.862548828125,-0.470458984375,-0.1763916015625,2.44140625,0.4272460639476776,-0.7324218153953552
-0.8505859375,-0.48681640625,-0.1776123046875,2.807616949081421,0.8544921278953552,-0.4882812201976776
-0.8538818359375,-0.4866943359375,-0.1595458984375,-2.50244140625,-0.1831054538488388,-1.7089842557907104
-0.8660888671875,-0.4765625,-0.158447265625,-2.624511480331421,0.0610351525247097,-0.8544921278953552
-0.8564453125,-0.498779296875,-0.169921875,-3.479003667831421,0.6103515625,-0.0610351525247097
-0.8577880859375,-0.4847412109375,-0.1514892578125,-8.11767578125,-0.8544921278953552,-0.4882812201976776
-0.861328125,-0.476318359375,-0.1492919921875,-8.30078125,-0.3662109076976776,-0.2441406100988388
-0.8558349609375,-0.4869384765625,-0.1676025390625,-6.469726085662842,1.2817381620407104,-0.30517578125
-0.8558349609375,-0.4971923828125,-0.1651611328125,-5.310058116912842,1.3427733182907104,-1.3427733182907104
-0.859130859375,-0.4888916015625,-0.1561279296875,-4.94384765625,1.220703125,-1.8920897245407104
-0.86376953125,-0.4761962890625,-0.1566162109375,-1.4648436307907104,1.9531248807907104,-1.5258787870407104
-0.85791015625,-0.4989013671875,-0.16845703125,0.3662109076976776,2.13623046875,-1.15966796875
-0.85888671875,-0.488525390625,-0.1650390625,1.3427733182907104,1.7089842557907104,-1.0986328125
-0.8504638671875,-0.48291015625,-0.150634765625,1.220703125,1.220703125,-0.54931640625
-0.857666015625,-0.48779296875,-0.152099609375,-0.0610351525247097,0.8544921278953552,0.1831054538488388
-0.8604736328125,-0.499755859375,-0.1722412109375,1.03759765625,0.8544921278953552,0.3662109076976776
-0.856201171875,-0.4930419921875,-0.1695556640625,2.13623046875,0.6713866591453552,0.3662109076976776
-0.85302734375,-0.481689453125,-0.1507568359375,1.03759765625,0.54931640625,-0.0610351525247097
-0.8583984375,-0.4888916015625,-0.16162109375,1.4038084745407104,0.0610351525247097,-0.0610351525247097
-0.8614501953125,-0.4935302734375,-0.169677734375,1.9531248807907104,-0.1220703050494194,0.1220703050494194
-0.857177734375,-0.492919921875,-0.1632080078125,3.845214605331421,-0.1831054538488388,0.3662109076976776
-0.85205078125,-0.48486328125,-0.1533203125,2.38037109375,-0.2441406100988388,-0.0610351525247097
-0.8548583984375,-0.484130859375,-0.1556396484375,1.3427733182907104,-0.1220703050494194,-0.4272460639476776
-0.899658203125,-0.9813232421875,-0.6605224609375,29.968259811401367,-135.80322265625,145.44677734375
-0.887939453125,-1.04736328125,-0.7728271484375,29.296873092651367,-154.4189453125,165.58836364746094
-0.9005126953125,-1.05859375,-0.7862548828125,27.038572311401367,-174.43846130371094,188.29344177246094
-0.7794189453125,-1.0299072265625,-0.7735595703125,17.4560546875,-192.62693786621094,199.40184020996094
-0.5767822265625,-1.0267333984375,-0.76123046875,12.512206077575684,-203.49119567871094,202.57566833496094
-0.50634765625,-1.0596923828125,-0.7816162109375,10.437010765075684,-213.43992614746094,209.35057067871094
-0.37646484375,-0.7838134765625,-0.53759765625,13.183592796325684,-216.24754333496094,212.46336364746094
-0.1951904296875,-0.7637939453125,-0.5654296875,23.437498092651367,-217.83445739746094,209.47264099121094
-0.0574951171875,-0.6962890625,-0.5211181640625,10.925292015075684,-217.59031677246094,200.56150817871094
0.009765625,-0.6092529296875,-0.412353515625,19.10400390625,-209.96092224121094,189.45310974121094
0.060302734375,-0.5142822265625,-0.2867431640625,16.7236328125,-202.88084411621094,178.03953552246094
0.1767578125,-0.400146484375,-0.245849609375,7.995604991912842,-184.57029724121094,161.01072692871094
0.2589111328125,-0.3837890625,-0.2135009765625,13.610838890075684,-167.60252380371094,143.1884765625
0.3919677734375,-0.2476806640625,-0.052001953125,13.061522483825684,-145.56884765625,120.17821502685547
0.497802734375,-0.3065185546875,-0.0347900390625,10.375975608825684,-120.66649627685547,98.51073455810547
0.6129150390625,-0.1605224609375,0.0748291015625,5.798339366912842,-92.59032440185547,76.23291015625
