aX,aY,aZ,gX,gY,gZ
-1.9688720703125,-0.420654296875,-0.402587890625,29.907224655151367,-68.115234375,137.8173828125
-1.8275146484375,-0.4334716796875,-0.354248046875,9.82666015625,-76.2939453125,148.86474609375
-1.481689453125,-0.4842529296875,-0.20361328125,19.8974609375,-68.4814453125,141.29638671875
-1.087646484375,-0.7772216796875,-0.3494873046875,13.610838890075684,-54.931636810302734,123.16893768310547
-0.7027587890625,-0.6951904296875,-0.386962890625,7.202147960662842,-54.504390716552734,105.59081268310547
-0.492919921875,-0.61865234375,-0.113525390625,4.5166015625,-45.532222747802734,79.2236328125
-0.3770751953125,-0.541015625,-0.1468505859375,9.70458984375,-26.733396530151367,77.0263671875
-0.16796875,-0.48046875,-0.1968994140625,1.0986328125,-21.667478561401367,34.912109375
-0.0924072265625,-0.36181640625,0.00244140625,-7.507323741912842,-13.488768577575684,1.7700194120407104
0.0037841796875,-0.3099365234375,-0.0289306640625,0.2441406100988388,-6.225585460662842,-9.33837890625
-0.01318359375,-0.4420166015625,-0.1448974609375,-0.7324218153953552,-2.38037109375,-9.765625
-0.14111328125,-0.3807373046875,-0.19482421875,-13.122557640075684,5.310058116912842,-1.4648436307907104
-0.2984619140625,-0.33740234375,-0.134033203125,-3.906249761581421,16.2353515625,5.493163585662842
-0.4129638671875,-0.4571533203125,-0.218994140625,-14.221190452575684,12.817381858825684,7.324218273162842
-0.4945068359375,-0.4892578125,-0.217041015625,-31.188962936401367,5.859374523162842,5.249022960662842
-0.5843505859375,-0.512451171875,-0.15185546875,-4.69970703125,0.9155272841453552,10.192870140075684
-0.6502685546875,-0.628662109375,-0.2784423828125,-8.30078125,-2.624511480331421,7.812499523162842
-0.7000732421875,-0.6455078125,-0.34521484375,-14.892577171325684,-5.187987804412842,4.150390625
-0.7562255859375,-0.627685546875,-0.284423828125,5.310058116912842,-2.563476324081421,4.57763671875
-0.75146484375,-0.6690673828125,-0.34033203125,-10.253905296325684,0.1831054538488388,-0.6103515625
-0.7841796875,-0.653564453125,-0.3006591796875,-12.268065452575684,1.3427733182907104,-4.33349609375
-0.7889404296875,-0.667724609375,-0.35546875,8.36181640625,5.0048828125,-4.39453125
-0.75439453125,-0.6788330078125,-0.2974853515625,-1.7700194120407104,6.835937023162842,-4.638671875
-0.7459716796875,-0.635009765625,-0.2398681640625,7.324218273162842,8.7890625,-4.638671875
-0.717041015625,-0.65576171875,-0.3238525390625,14.526366233825684,10.375975608825684,-3.417968511581421
-0.68701171875,-0.6431884765625,-0.305419921875,-4.21142578125,5.493163585662842,-5.920409679412842
-0.66455078125,-0.5810546875,-0.216796875,0.0610351525247097,6.225585460662842,-6.103515148162842
-0.6434326171875,-0.6177978515625,-0.2244873046875,8.97216796875,7.629394054412842,-4.69970703125
-0.647216796875,-0.611083984375,-0.304931640625,1.15966796875,6.958007335662842,-2.197265625
-0.627197265625,-0.5789794921875,-0.2740478515625,0.4882812201976776,4.39453125,-2.3193359375
-0.5791015625,-0.5606689453125,-0.220947265625,-2.01416015625,0.7934569716453552,-4.08935546875
-0.515869140625,-0.5584716796875,-0.22021484375,0.3662109076976776,-3.723144292831421,-3.051757574081421
-0.48046875,-0.5277099609375,-0.206298828125,4.94384765625,-5.554198741912842,0.2441406100988388
-0.4410400390625,-0.443603515625,-0.2139892578125,7.324218273162842,-1.6479490995407104,2.50244140625
-0.4132080078125,-0.4931640625,-0.223876953125,5.126952648162842,0.8544921278953552,4.638671875
-0.4296875,-0.5164794921875,-0.2564697265625,7.080077648162842,-5.310058116912842,8.48388671875
-0.48486328125,-0.4368896484375,-0.0472412109375,5.737304210662842,-1.220703125,4.150390625
-0.5155029296875,-0.5230712890625,-0.1671142578125,35.21728515625,15.808104515075684,-4.45556640625
-0.4378662109375,-0.6910400390625,-0.6014404296875,1.2817381620407104,-4.638671875,0.2441406100988388
-0.67822265625,-0.563720703125,-0.0650634765625,-16.29638671875,5.432128429412842,-19.59228515625
-0.685791015625,-0.6256103515625,-0.322265625,26.977537155151367,22.705076217651367,-19.10400390625
-0.7379150390625,-0.7877197265625,-0.53662109375,-30.578611373901367,7.202147960662842,-18.06640625
-0.92041015625,-0.6192626953125,-0.1121826171875,-8.056640625,25.451658248901367,-38.87939453125
-0.8280029296875,-0.7249755859375,-0.499267578125,10.070799827575684,19.22607421875,-20.629880905151367
-0.8955078125,-0.72607421875,-0.248046875,-53.466793060302734,9.46044921875,-24.658201217651367
-1.0093994140625,-0.5736083984375,-0.202392578125,-11.474608421325684,25.085447311401367,-36.62109375
-0.8538818359375,-0.7291259765625,-0.4097900390625,-9.21630859375,17.76123046875,-22.705076217651367
-0.9129638671875,-0.6671142578125,-0.19775390625,-40.405269622802734,10.314940452575684,-25.939939498901367
-0.92431640625,-0.4837646484375,-0.1187744140625,-17.4560546875,14.648436546325684,-30.639646530151367
-1.0032958984375,-0.494384765625,-0.249267578125,-4.8828125,15.197752952575684,-31.677244186401367
-0.9681396484375,-0.5252685546875,-0.2430419921875,6.286620616912842,13.305663108825684,-32.2265625
-0.984375,-0.4298095703125,-0.1568603515625,2.990722417831421,12.512206077575684,-37.65869140625
-0.9620361328125,-0.3839111328125,-0.154541015625,10.009765625,16.41845703125,-40.710445404052734
-0.9521484375,-0.4229736328125,-0.1761474609375,2.990722417831421,17.333984375,-35.33935546875
-0.951171875,-0.4034423828125,-0.1507568359375,-0.6713866591453552,18.06640625,-35.7666015625
-0.9434814453125,-0.3985595703125,-0.1358642578125,5.432128429412842,19.83642578125,-34.912109375
-0.9515380859375,-0.3717041015625,-0.126953125,2.0751953125,15.869139671325684,-29.296873092651367
-0.94482421875,-0.3819580078125,-0.0867919921875,4.7607421875,11.657713890075684,-25.390623092651367
-0.994873046875,-0.3526611328125,-0.0919189453125,8.97216796875,8.23974609375,-23.925779342651367
-1.014892578125,-0.3463134765625,-0.1070556640625,-2.50244140625,3.967284917831421,-21.545408248901367
-1.0294189453125,-0.3172607421875,-0.100830078125,-7.446288585662842,3.784179449081421,-19.22607421875
-1.0078125,-0.3260498046875,-0.135009765625,-2.25830078125,2.01416015625,-14.526366233825684
-0.9881591796875,-0.3388671875,-0.1043701171875,-11.840819358825684,-0.6713866591453552,-15.441893577575684
-0.9833984375,-0.2991943359375,-0.071044921875,-15.502928733825684,-0.7324218153953552,-16.2353515625
-0.9896240234375,-0.2742919921875,-0.09814453125,-2.01416015625,2.50244140625,-11.047362327575684
-0.978759765625,-0.32568359375,-0.1568603515625,1.9531248807907104,1.8920897245407104,-6.835937023162842
-0.991943359375,-0.30224609375,-0.10595703125,-5.859374523162842,0.9765624403953552,-8.4228515625
-1.012451171875,-0.2718505859375,-0.0714111328125,-3.601073980331421,0.9765624403953552,-6.225585460662842
-1.040283203125,-0.2991943359375,-0.0894775390625,12.329100608825684,-0.6103515625,-3.356933355331421
-1.0076904296875,-0.3157958984375,-0.123779296875,9.8876953125,-2.13623046875,-0.4882812201976776
-0.9722900390625,-0.30322265625,-0.0992431640625,6.958007335662842,-2.746581792831421,-0.3662109076976776
-0.9691162109375,-0.294921875,-0.0782470703125,5.920409679412842,-1.7089842557907104,-0.7324218153953552
-0.9744873046875,-0.3033447265625,-0.0850830078125,6.286620616912842,-1.220703125,0.0
-0.9578857421875,-0.3082275390625,-0.123779296875,8.60595703125,-1.2817381620407104,1.3427733182907104
-0.9525146484375,-0.3212890625,-0.1103515625,3.662109136581421,-1.0986328125,0.7934569716453552
-0.9453125,-0.2982177734375,-0.083740234375,0.8544921278953552,-0.4272460639476776,0.9155272841453552
-0.9390869140625,-0.3011474609375,-0.092529296875,0.9155272841453552,-0.1831054538488388,0.9155272841453552
-0.9398193359375,-0.307861328125,-0.1064453125,0.6103515625,-0.6713866591453552,-0.1220703050494194
-0.9300537109375,-0.305908203125,-0.103271484375,-3.234863042831421,-1.4648436307907104,-0.7934569716453552
-0.927734375,-0.294677734375,-0.095703125,-6.347655773162842,-1.15966796875,-1.0986328125
-0.9486083984375,-0.2821044921875,-0.109375,-4.150390625,0.6103515625,-1.5869139432907104
-0.93408203125,-0.3154296875,-0.138671875,-0.6103515625,0.0,-1.6479490995407104
-0.954345703125,-0.3028564453125,-0.1055908203125,-3.784179449081421,-1.4648436307907104,-1.7089842557907104
-0.966796875,-0.2677001953125,-0.09912109375,-0.4272460639476776,-1.2817381620407104,0.6713866591453552
-0.9710693359375,-0.2735595703125,-0.1181640625,3.173827886581421,-1.4648436307907104,3.417968511581421
-0.96533203125,-0.3048095703125,-0.1263427734375,0.4882812201976776,-3.356933355331421,3.479003667831421
-0.958251953125,-0.278076171875,-0.1090087890625,-1.2817381620407104,-3.723144292831421,2.01416015625
-0.96826171875,-0.2698974609375,-0.10107421875,2.624511480331421,-1.8920897245407104,1.5258787870407104
-0.9468994140625,-0.3184814453125,-0.140625,-0.1220703050494194,-1.3427733182907104,-0.7934569716453552
-0.9517822265625,-0.3131103515625,-0.1182861328125,-7.568358898162842,-1.8310545682907104,-4.82177734375
-0.94921875,-0.282470703125,-0.0953369140625,-7.751464366912842,-1.03759765625,-5.126952648162842
-0.9505615234375,-0.2906494140625,-0.1181640625,-8.60595703125,-0.9155272841453552,-5.0048828125
-0.951171875,-0.29150390625,-0.1219482421875,-13.122557640075684,-1.15966796875,-5.554198741912842
-0.94970703125,-0.2796630859375,-0.1097412109375,-13.671874046325684,-0.4882812201976776,-5.737304210662842
-0.9432373046875,-0.29345703125,-0.105712890625,-14.343260765075684,-0.30517578125,-6.225585460662842
-0.9473876953125,-0.289306640625,-0.111083984375,-14.831542015075684,-0.2441406100988388,-5.0048828125
-0.9561767578125,-0.2896728515625,-0.1173095703125,-13.549803733825684,0.2441406100988388,-3.723144292831421
-0.956787109375,-0.2860107421875,-0.111328125,-10.559081077575684,0.2441406100988388,-3.723144292831421
-0.9559326171875,-0.3033447265625,-0.1124267578125,-7.202147960662842,0.30517578125,-4.150390625
-0.9793701171875,-0.2989501953125,-0.109130859375,-3.906249761581421,0.7934569716453552,-5.126952648162842
-0.99169921875,-0.3045654296875,-0.11474609375,1.6479490995407104,1.15966796875,-4.8828125
-1.0006103515625,-0.3201904296875,-0.095947265625,1.7700194120407104,0.9155272841453552,-4.33349609375
-1.001953125,-0.2877197265625,-0.092041015625,3.784179449081421,2.197265625,-1.15966796875
-0.9713134765625,-0.2791748046875,-0.1224365234375,11.108397483825684,2.746581792831421,4.21142578125
-0.9361572265625,-0.2923583984375,-0.08544921875,10.070799827575684,2.01416015625,5.676269054412842
-0.9251708984375,-0.275390625,-0.072509765625,5.493163585662842,1.6479490995407104,7.080077648162842
-0.9114990234375,-0.280517578125,-0.0823974609375,6.347655773162842,0.8544921278953552,7.141112804412842
-0.9041748046875,-0.279052734375,-0.0987548828125,9.8876953125,1.9531248807907104,5.554198741912842
-0.8909912109375,-0.3057861328125,-0.110595703125,9.21630859375,2.25830078125,2.50244140625
-0.9049072265625,-0.30810546875,-0.087646484375,4.5166015625,1.7089842557907104,-1.4038084745407104
-0.91796875,-0.283447265625,-0.0750732421875,4.33349609375,1.5869139432907104,-2.624511480331421
-0.927734375,-0.2867431640625,-0.120849609375,6.225585460662842,1.5869139432907104,-1.220703125
-0.9478759765625,-0.3018798828125,-0.1163330078125,0.3662109076976776,0.0,-0.8544921278953552
-0.9630126953125,-0.2559814453125,-0.089599609375,-1.0986328125,0.30517578125,0.4882812201976776
-0.9473876953125,-0.282958984375,-0.11962890625,2.50244140625,0.4272460639476776,2.13623046875
-0.950927734375,-0.2977294921875,-0.123046875,-1.8920897245407104,-0.7324218153953552,-0.1831054538488388
-1.984375,-0.2889404296875,-0.393310546875,33.203125,-50.964351654052734,136.77978515625
-1.9801025390625,-0.496826171875,-0.5130615234375,44.189449310302734,-63.293453216552734,150.20751953125
-1.65771484375,-0.5274658203125,-0.4083251953125,28.808591842651367,-63.415523529052734,141.54052734375
-1.1978759765625,-0.57177734375,-0.277099609375,22.949216842651367,-46.752925872802734,118.59130096435547
-0.898681640625,-0.739013671875,-0.3470458984375,32.40966796875,-35.46142578125,105.22460174560547
-0.50146484375,-0.7645263671875,-0.379150390625,15.258788108825684,-33.14208984375,77.880859375
-0.3231201171875,-0.6827392578125,-0.2071533203125,21.789548873901367,-21.972654342651367,42.419429779052734
-0.1790771484375,-0.5765380859375,-0.0980224609375,12.573241233825684,-13.427733421325684,16.6015625
-0.154541015625,-0.480224609375,-0.0838623046875,-1.5869139432907104,-2.746581792831421,-7.751464366912842
-0.1282958984375,-0.3997802734375,-0.1541748046875,-6.530761241912842,-0.6713866591453552,-23.193357467651367
-0.0560302734375,-0.3905029296875,-0.06005859375,-8.11767578125,3.173827886581421,-28.869626998901367
-0.1009521484375,-0.333984375,-0.12451171875,-6.713866710662842,14.892577171325684,-23.010251998901367
-0.1185302734375,-0.3798828125,-0.234130859375,-17.39501953125,16.9677734375,-14.099120140075684
-0.227294921875,-0.3839111328125,-0.15625,-2.685546636581421,15.197752952575684,-2.685546636581421
-0.3641357421875,-0.375244140625,-0.10693359375,1.6479490995407104,14.831542015075684,6.042479991912842
-0.498779296875,-0.467529296875,-0.2637939453125,-15.869139671325684,12.512206077575684,10.253905296325684
-0.5843505859375,-0.5478515625,-0.301513671875,-17.76123046875,3.295898199081421,15.930174827575684
-0.730712890625,-0.584228515625,-0.24462890625,-6.164550304412842,-3.784179449081421,15.991209983825684
-0.7578125,-0.5638427734375,-0.2559814453125,-15.441893577575684,-4.39453125,10.498045921325684
-0.815673828125,-0.6217041015625,-0.3377685546875,-6.591796398162842,-3.295898199081421,8.85009765625
-0.8028564453125,-0.6815185546875,-0.421875,-12.390135765075684,-5.615233898162842,7.324218273162842
-0.801025390625,-0.5889892578125,-0.312744140625,-10.620116233825684,-2.13623046875,0.6103515625
-0.780029296875,-0.6334228515625,-0.250732421875,-2.50244140625,0.1220703050494194,-3.234863042831421
-0.7581787109375,-0.60400390625,-0.2650146484375,-5.249022960662842,0.9765624403953552,-6.347655773162842
-0.7174072265625,-0.6383056640625,-0.2967529296875,3.479003667831421,1.2817381620407104,-5.432128429412842
-0.7220458984375,-0.6214599609375,-0.303955078125,-1.3427733182907104,1.2817381620407104,-5.615233898162842
-0.7115478515625,-0.60205078125,-0.2154541015625,-3.112792730331421,3.784179449081421,-6.958007335662842
-0.736572265625,-0.55908203125,-0.2479248046875,9.33837890625,7.324218273162842,-4.5166015625
-0.71044921875,-0.65234375,-0.35791015625,-8.23974609375,5.126952648162842,-3.112792730331421
-0.7333984375,-0.61181640625,-0.3045654296875,-9.21630859375,2.38037109375,-2.01416015625
-0.72607421875,-0.588623046875,-0.2177734375,2.685546636581421,3.540038824081421,-2.01416015625
-0.7298583984375,-0.6051025390625,-0.2723388671875,-4.2724609375,2.0751953125,-1.9531248807907104
-0.6973876953125,-0.595947265625,-0.27978515625,-5.981444835662842,-1.6479490995407104,-3.356933355331421
-0.6865234375,-0.581787109375,-0.2396240234375,-1.0986328125,-2.13623046875,-3.356933355331421
-0.639404296875,-0.5596923828125,-0.2374267578125,-0.2441406100988388,-2.929687261581421,-0.1220703050494194
-0.54736328125,-0.521484375,-0.22412109375,-7.812499523162842,-6.042479991912842,3.234863042831421
-0.46875,-0.44970703125,-0.2021484375,-7.812499523162842,-5.0048828125,5.859374523162842
-0.4354248046875,-0.4766845703125,-0.213623046875,-2.624511480331421,-0.9155272841453552,7.873534679412842
-0.469970703125,-0.523681640625,-0.208251953125,-13.732909202575684,-2.13623046875,8.4228515625
-0.4688720703125,-0.453369140625,-0.217041015625,-6.286620616912842,-6.530761241912842,8.36181640625
-0.5927734375,-0.531494140625,-0.1072998046875,-4.5166015625,1.03759765625,4.45556640625
-0.485595703125,-0.605712890625,-0.4208984375,6.408690929412842,3.662109136581421,1.7700194120407104
-0.5660400390625,-0.5667724609375,-0.276611328125,-28.137205123901367,-9.82666015625,-1.6479490995407104
-0.7659912109375,-0.619140625,-0.0335693359375,-8.48388671875,16.17431640625,-16.05224609375
-0.5556640625,-0.5968017578125,-0.4835205078125,12.451170921325684,9.6435546875,-12.695311546325684
-0.7381591796875,-0.701416015625,-0.302978515625,-57.067867279052734,-9.765625,-15.747069358825684
-0.876953125,-0.701416015625,-0.00634765625,-7.995604991912842,13.732909202575684,-32.470703125
-0.678955078125,-0.6702880859375,-0.483154296875,6.042479991912842,4.33349609375,-9.82666015625
-0.9488525390625,-0.74951171875,-0.1868896484375,-59.692378997802734,9.3994140625,-26.672361373901367
-0.9212646484375,-0.692626953125,-0.281005859375,9.27734375,21.240232467651367,-39.306640625
-0.819580078125,-0.69287109375,-0.349609375,-8.72802734375,1.4648436307907104,-23.132322311401367
-0.9737548828125,-0.5789794921875,-0.031494140625,-37.353515625,7.324218273162842,-32.16552734375
-0.9620361328125,-0.624755859375,-0.278076171875,24.291990280151367,17.08984375,-30.639646530151367
-0.8585205078125,-0.7174072265625,-0.34765625,-2.807616949081421,2.746581792831421,-23.742673873901367
-0.895751953125,-0.5084228515625,-0.043212890625,-27.648923873901367,5.615233898162842,-27.954099655151367
-0.9296875,-0.4873046875,-0.15185546875,9.033203125,14.343260765075684,-22.460935592651367
-0.837646484375,-0.6373291015625,-0.286376953125,-10.803221702575684,9.82666015625,-24.902341842651367
-0.854248046875,-0.5330810546875,-0.1737060546875,-18.310546875,9.21630859375,-32.2265625
-1.019775390625,-0.4620361328125,-0.120849609375,4.69970703125,12.817381858825684,-27.709959030151367
-0.9189453125,-0.5042724609375,-0.190185546875,1.15966796875,10.742186546325684,-25.695798873901367
-0.924072265625,-0.4879150390625,-0.1981201171875,13.977049827575684,11.169432640075684,-27.893064498901367
-1.02001953125,-0.4881591796875,-0.235107421875,6.896972179412842,2.685546636581421,-23.254392623901367
-1.0152587890625,-0.3670654296875,-0.089111328125,0.2441406100988388,1.2817381620407104,-23.864744186401367
-0.990234375,-0.3631591796875,-0.099853515625,21.911619186401367,10.742186546325684,-19.1650390625
-0.908935546875,-0.43359375,-0.2476806640625,22.216794967651367,9.3994140625,-14.343260765075684
-0.9049072265625,-0.4503173828125,-0.175048828125,-5.065917491912842,5.615233898162842,-20.629880905151367
-0.945068359375,-0.390625,-0.1060791015625,0.7934569716453552,9.521484375,-23.620603561401367
-0.9478759765625,-0.374267578125,-0.1629638671875,21.057126998901367,12.084959983825684,-23.254392623901367
-0.9390869140625,-0.4029541015625,-0.1744384765625,11.047362327575684,7.141112804412842,-24.536130905151367
-0.9520263671875,-0.3546142578125,-0.08056640625,-6.652831554412842,5.676269054412842,-31.066892623901367
-0.9818115234375,-0.304931640625,-0.0977783203125,11.291502952575684,11.413573265075684,-30.944822311401367
-0.93017578125,-0.36083984375,-0.1993408203125,15.014647483825684,9.521484375,-31.921384811401367
-0.9287109375,-0.378173828125,-0.1339111328125,-10.314940452575684,5.126952648162842,-37.41455078125
-0.9892578125,-0.303955078125,-0.0628662109375,-18.00537109375,6.103515148162842,-37.90283203125
-1.0020751953125,-0.3187255859375,-0.1099853515625,-6.652831554412842,9.09423828125,-32.470703125
-0.9603271484375,-0.3382568359375,-0.177490234375,-6.652831554412842,4.21142578125,-22.583005905151367
-0.9879150390625,-0.2718505859375,-0.109619140625,-24.597166061401367,1.0986328125,-18.6767578125
-1.00439453125,-0.2576904296875,-0.0286865234375,-30.944822311401367,1.4648436307907104,-14.099120140075684
-1.0067138671875,-0.2254638671875,-0.09375,-17.578125,2.868652105331421,-6.469726085662842
-0.9835205078125,-0.317626953125,-0.1767578125,-11.596678733825684,1.4038084745407104,-3.479003667831421
-0.97998046875,-0.30224609375,-0.137451171875,-16.90673828125,-0.7324218153953552,-4.94384765625
-0.988037109375,-0.242431640625,-0.0706787109375,-7.690429210662842,0.7934569716453552,-2.197265625
-0.9835205078125,-0.2628173828125,-0.1170654296875,4.150390625,3.112792730331421,0.0
-0.9818115234375,-0.3214111328125,-0.1348876953125,4.39453125,1.7089842557907104,-0.9155272841453552
-0.99169921875,-0.27392578125,-0.09228515625,4.39453125,0.2441406100988388,-1.8310545682907104
-0.9832763671875,-0.26318359375,-0.0938720703125,10.192870140075684,1.2817381620407104,0.54931640625
-0.9710693359375,-0.28662109375,-0.1177978515625,11.962889671325684,1.8920897245407104,1.4038084745407104
-0.9617919921875,-0.291259765625,-0.1123046875,8.85009765625,0.7324218153953552,0.4272460639476776
-0.966796875,-0.258544921875,-0.0899658203125,6.469726085662842,-0.1831054538488388,1.4648436307907104
-0.95166015625,-0.267333984375,-0.0972900390625,5.981444835662842,0.0,2.197265625
-0.9517822265625,-0.2750244140625,-0.0955810546875,0.9155272841453552,-0.4882812201976776,0.1220703050494194
-0.958251953125,-0.26171875,-0.1043701171875,0.9765624403953552,-0.3662109076976776,-0.6713866591453552
-0.9599609375,-0.256103515625,-0.11474609375,1.7089842557907104,-0.6103515625,-0.9765624403953552
-0.9605712890625,-0.2353515625,-0.09326171875,0.54931640625,-0.7324218153953552,-0.1220703050494194
-0.951904296875,-0.258056640625,-0.1055908203125,3.295898199081421,-0.6713866591453552,0.30517578125
-0.9515380859375,-0.2667236328125,-0.1077880859375,2.746581792831421,-1.4038084745407104,-1.5869139432907104
-0.9559326171875,-0.2540283203125,-0.09326171875,2.685546636581421,-0.54931640625,-2.3193359375
-0.9635009765625,-0.25048828125,-0.1102294921875,5.554198741912842,1.03759765625,-2.0751953125
-0.958984375,-0.2806396484375,-0.126220703125,6.530761241912842,0.1831054538488388,-1.4648436307907104
-0.9794921875,-0.2603759765625,-0.095458984375,3.051757574081421,-0.6713866591453552,-1.7700194120407104
-0.9962158203125,-0.2281494140625,-0.0751953125,6.347655773162842,0.7324218153953552,-1.0986328125
-0.97265625,-0.2606201171875,-0.134765625,11.962889671325684,1.8310545682907104,0.3662109076976776
-0.9661865234375,-0.28369140625,-0.1241455078125,5.187987804412842,0.2441406100988388,-1.5258787870407104
-0.9610595703125,-0.244384765625,-0.0799560546875,2.197265625,-0.54931640625,-2.13623046875
-0.9686279296875,-0.241455078125,-0.0775146484375,3.479003667831421,0.4272460639476776,-2.0751953125
-0.9664306640625,-0.258544921875,-0.135498046875,5.493163585662842,0.6103515625,-0.8544921278953552
-0.9476318359375,-0.2716064453125,-0.1173095703125,0.1220703050494194,-0.3662109076976776,-1.9531248807907104
-0.950439453125,-0.2403564453125,-0.0869140625,-1.5869139432907104,0.1831054538488388,-1.7089842557907104
-0.9580078125,-0.2552490234375,-0.09814453125,-1.6479490995407104,0.0610351525247097,-1.220703125
-0.9639892578125,-0.2591552734375,-0.1170654296875,-0.9155272841453552,-0.4882812201976776,-1.15966796875
-0.961181640625,-0.2568359375,-0.1204833984375,-1.3427733182907104,-0.4882812201976776,-1.5869139432907104
-0.961181640625,-0.2509765625,-0.10205078125,-0.1220703050494194,0.0,-2.13623046875
-0.9488525390625,-0.257080078125,-0.1099853515625,1.7700194120407104,0.1831054538488388,-1.7089842557907104
-0.9512939453125,-0.263671875,-0.1114501953125,0.0610351525247097,-0.30517578125,-2.197265625
-0.95458984375,-0.2471923828125,-0.1024169921875,-1.3427733182907104,-0.0610351525247097,-2.25830078125
-0.9532470703125,-0.246337890625,-0.11328125,2.624511480331421,0.2441406100988388,-1.2817381620407104
-0.962158203125,-0.2633056640625,-0.1207275390625,1.8310545682907104,0.30517578125,-1.7700194120407104
-0.9635009765625,-0.263916015625,-0.113037109375,-0.4272460639476776,-0.3662109076976776,-1.7700194120407104
-0.9620361328125,-0.239501953125,-0.100830078125,1.8310545682907104,-0.1220703050494194,-1.2817381620407104
-1.736328125,-0.541015625,-0.323974609375,16.29638671875,-48.034664154052734,139.09912109375
-1.5517578125,-0.65625,-0.3092041015625,-7.995604991912842,-49.499507904052734,136.16943359375
-1.3408203125,-0.711669921875,-0.273681640625,13.549803733825684,-42.358394622802734,135.92529296875
-1.0052490234375,-0.8319091796875,-0.3306884765625,16.6015625,-36.2548828125,125.97655487060547
-0.686279296875,-0.7369384765625,-0.261474609375,9.58251953125,-33.447265625,110.29051971435547
-0.5677490234375,-0.692626953125,-0.1661376953125,-8.11767578125,-23.132322311401367,82.45848846435547
-0.3184814453125,-0.531494140625,-0.1517333984375,-8.60595703125,-10.803221702575684,50.292964935302734
-0.15185546875,-0.5037841796875,-0.1785888671875,-17.08984375,-4.638671875,20.263669967651367
-0.1240234375,-0.4727783203125,-0.129638671875,-20.751951217651367,-3.051757574081421,-7.812499523162842
-0.1640625,-0.4927978515625,-0.04833984375,-0.30517578125,5.859374523162842,-15.258788108825684
-0.0806884765625,-0.436279296875,-0.21630859375,-2.563476324081421,9.765625,-20.568845748901367
-0.1453857421875,-0.4161376953125,-0.09619140625,-6.103515148162842,9.09423828125,-23.010251998901367
-0.2216796875,-0.40625,-0.0330810546875,-1.3427733182907104,12.573241233825684,-17.27294921875
-0.3099365234375,-0.4178466796875,-0.131591796875,9.94873046875,15.380858421325684,-13.916014671325684
-0.36669921875,-0.5364990234375,-0.24658203125,-7.812499523162842,9.3994140625,-8.48388671875
-0.456787109375,-0.55224609375,-0.1351318359375,-9.3994140625,2.3193359375,-5.126952648162842
-0.587890625,-0.60986328125,-0.1787109375,-2.38037109375,6.103515148162842,0.7324218153953552
-0.6795654296875,-0.6761474609375,-0.271240234375,-20.080564498901367,4.0283203125,2.0751953125
-0.6995849609375,-0.7127685546875,-0.222412109375,-22.216794967651367,2.01416015625,3.662109136581421
-0.707763671875,-0.6649169921875,-0.1650390625,-6.652831554412842,3.356933355331421,2.685546636581421
-0.71435546875,-0.74755859375,-0.2265625,-7.690429210662842,2.38037109375,0.4272460639476776
-0.758056640625,-0.6937255859375,-0.2308349609375,-23.864744186401367,-5.065917491912842,0.4272460639476776
-0.75048828125,-0.70458984375,-0.201171875,-17.08984375,-5.187987804412842,-1.7700194120407104
-0.749267578125,-0.69873046875,-0.2039794921875,-10.314940452575684,-2.624511480331421,-2.25830078125
-0.7308349609375,-0.718505859375,-0.225830078125,-13.549803733825684,-1.5258787870407104,-2.746581792831421
-0.7069091796875,-0.6796875,-0.21240234375,-2.746581792831421,1.6479490995407104,-1.8310545682907104
-0.703369140625,-0.6768798828125,-0.2049560546875,1.4648436307907104,5.187987804412842,-3.662109136581421
-0.6790771484375,-0.67724609375,-0.1953125,0.9155272841453552,4.94384765625,-1.8920897245407104
-0.6910400390625,-0.64111328125,-0.1907958984375,10.009765625,7.263183116912842,-0.3662109076976776
-0.6339111328125,-0.67822265625,-0.21875,4.7607421875,6.591796398162842,0.30517578125
-0.6458740234375,-0.6663818359375,-0.1380615234375,0.1220703050494194,2.929687261581421,-1.3427733182907104
-0.6484375,-0.6541748046875,-0.164306640625,4.08935546875,1.03759765625,-0.6713866591453552
-0.66357421875,-0.6832275390625,-0.20556640625,1.15966796875,-1.03759765625,0.4272460639476776
-0.657958984375,-0.6556396484375,-0.1741943359375,-1.220703125,-1.4038084745407104,-0.4272460639476776
-0.629638671875,-0.6373291015625,-0.1646728515625,-1.0986328125,-2.38037109375,-2.990722417831421
-0.5770263671875,-0.610595703125,-0.13134765625,1.5869139432907104,-6.713866710662842,-3.479003667831421
-0.4931640625,-0.53564453125,-0.1068115234375,4.21142578125,-9.8876953125,-2.13623046875
-0.356201171875,-0.4647216796875,-0.112548828125,3.723144292831421,-9.3994140625,2.38037109375
-0.4310302734375,-0.5404052734375,-0.14453125,7.629394054412842,0.7934569716453552,-1.8920897245407104
-0.3887939453125,-0.6357421875,-0.240478515625,-0.30517578125,-1.9531248807907104,0.1220703050494194
-0.4757080078125,-0.3721923828125,-0.0606689453125,-1.3427733182907104,-1.9531248807907104,-6.896972179412842
-0.56591796875,-0.5318603515625,-0.112548828125,-3.967284917831421,4.0283203125,-7.751464366912842
-0.375,-0.7200927734375,-0.288818359375,-16.4794921875,-6.958007335662842,-9.033203125
-0.6253662109375,-0.5286865234375,-0.0555419921875,-11.657713890075684,-4.45556640625,-21.423337936401367
-0.5084228515625,-0.6280517578125,-0.2811279296875,-22.705076217651367,-3.601073980331421,-26.184080123901367
-0.61181640625,-0.6959228515625,-0.0230712890625,-35.33935546875,-6.591796398162842,-29.907224655151367
-0.87744140625,-0.6163330078125,-0.229736328125,-2.13623046875,17.76123046875,-44.494625091552734
-0.534912109375,-0.8492431640625,-0.47802734375,-19.53125,1.15966796875,-35.7666015625
-0.7952880859375,-0.5965576171875,0.02294921875,-57.373043060302734,-7.995604991912842,-53.527828216552734
-1.1546630859375,-0.700927734375,-0.0096435546875,-1.5258787870407104,20.996091842651367,-52.856441497802734
-0.7275390625,-0.802001953125,-0.63818359375,-16.54052734375,-5.981444835662842,-34.97314453125
-1.077392578125,-0.493408203125,0.0897216796875,-49.255367279052734,-5.371093273162842,-55.358882904052734
-1.0634765625,-0.570556640625,-0.055419921875,5.126952648162842,8.1787109375,-45.776363372802734
-0.886962890625,-0.60009765625,-0.3299560546875,-2.807616949081421,-3.967284917831421,-43.457027435302734
-1.0341796875,-0.522216796875,-0.1156005859375,-21.911619186401367,4.7607421875,-53.710933685302734
-1.14453125,-0.4873046875,-0.2127685546875,15.136717796325684,9.6435546875,-45.715328216552734
-1.0015869140625,-0.4755859375,-0.2105712890625,11.047362327575684,6.347655773162842,-42.724605560302734
-0.9176025390625,-0.432373046875,-0.0869140625,16.41845703125,11.352538108825684,-46.691890716552734
-1.050537109375,-0.4359130859375,-0.0755615234375,28.808591842651367,15.075682640075684,-46.264644622802734
-1.0516357421875,-0.4329833984375,-0.18798828125,27.038572311401367,14.038084983825684,-44.738765716552734
-1.0277099609375,-0.3656005859375,-0.0897216796875,25.939939498901367,14.282225608825684,-50.292964935302734
-1.1356201171875,-0.3299560546875,-0.111572265625,44.006343841552734,20.141599655151367,-46.325679779052734
-1.1136474609375,-0.3548583984375,-0.1971435546875,46.081539154052734,13.366698265075684,-39.306640625
-1.0919189453125,-0.2874755859375,-0.0806884765625,28.381345748901367,10.070799827575684,-36.0107421875
-1.111083984375,-0.1883544921875,-0.07666015625,26.794431686401367,13.061522483825684,-26.123044967651367
-1.010009765625,-0.266357421875,-0.156005859375,26.672361373901367,11.718749046325684,-20.751951217651367
-1.0107421875,-0.270263671875,-0.128173828125,15.502928733825684,9.58251953125,-21.972654342651367
-0.991943359375,-0.2342529296875,-0.09228515625,8.36181640625,6.225585460662842,-18.9208984375
-0.993408203125,-0.2093505859375,-0.08154296875,6.103515148162842,6.530761241912842,-12.939452171325684
-0.9755859375,-0.2613525390625,-0.14404296875,-0.1831054538488388,3.356933355331421,-7.629394054412842
-0.9864501953125,-0.2518310546875,-0.1146240234375,-12.512206077575684,-0.1220703050494194,-6.591796398162842
-0.9842529296875,-0.221923828125,-0.07958984375,-14.221190452575684,-0.7324218153953552,-6.347655773162842
-0.973388671875,-0.25439453125,-0.1107177734375,-12.268065452575684,-0.9155272841453552,-3.540038824081421
-0.9776611328125,-0.24560546875,-0.1307373046875,-15.991209983825684,-1.7700194120407104,-4.45556640625
-0.9730224609375,-0.243408203125,-0.1273193359375,-14.953612327575684,-1.9531248807907104,-2.25830078125
-0.974853515625,-0.226318359375,-0.113037109375,-10.864256858825684,-2.44140625,-0.1220703050494194
-0.987548828125,-0.2298583984375,-0.0869140625,-10.620116233825684,-3.051757574081421,1.8920897245407104
-0.996826171875,-0.2344970703125,-0.0986328125,-6.408690929412842,-2.929687261581421,3.051757574081421
-0.974365234375,-0.244384765625,-0.13671875,1.8920897245407104,-3.540038824081421,2.25830078125
-0.965576171875,-0.2557373046875,-0.125732421875,1.6479490995407104,-3.723144292831421,1.0986328125
-0.964599609375,-0.25341796875,-0.0928955078125,0.4272460639476776,-4.57763671875,0.7324218153953552
-0.9791259765625,-0.2354736328125,-0.0843505859375,2.746581792831421,-4.5166015625,1.5869139432907104
-0.961181640625,-0.2337646484375,-0.126708984375,5.310058116912842,-4.33349609375,3.356933355331421
-0.9619140625,-0.2606201171875,-0.123779296875,3.112792730331421,-4.69970703125,2.929687261581421
-0.950927734375,-0.234619140625,-0.104248046875,-0.2441406100988388,-5.126952648162842,2.3193359375
-0.960693359375,-0.2330322265625,-0.09375,-0.0610351525247097,-3.906249761581421,1.8920897245407104
-0.952392578125,-0.2532958984375,-0.150146484375,1.4038084745407104,-2.929687261581421,2.25830078125
-0.961669921875,-0.255126953125,-0.13232421875,-3.417968511581421,-4.150390625,-0.6713866591453552
-0.9842529296875,-0.2305908203125,-0.096435546875,-5.065917491912842,-3.784179449081421,-1.7089842557907104
-0.982666015625,-0.2344970703125,-0.119873046875,-1.0986328125,-2.685546636581421,-2.197265625
-0.966064453125,-0.249267578125,-0.1474609375,0.4272460639476776,-2.01416015625,-3.845214605331421
-0.9549560546875,-0.25341796875,-0.130859375,-3.906249761581421,-2.50244140625,-5.554198741912842
-0.958740234375,-0.2069091796875,-0.11181640625,-1.4038084745407104,-1.5869139432907104,-4.08935546875
-0.952880859375,-0.2276611328125,-0.1282958984375,1.8920897245407104,-0.3662109076976776,-3.356933355331421
-0.9810791015625,-0.2674560546875,-0.155517578125,0.1831054538488388,0.2441406100988388,-6.652831554412842
-1.0035400390625,-0.24267578125,-0.1666259765625,2.50244140625,0.1831054538488388,-7.812499523162842
-0.9849853515625,-0.2230224609375,-0.1376953125,7.019042491912842,-0.6103515625,-7.141112804412842
-0.99267578125,-0.2095947265625,-0.111572265625,6.225585460662842,0.1831054538488388,-5.187987804412842
-0.9716796875,-0.2197265625,-0.1361083984375,9.765625,0.30517578125,-1.0986328125
-0.93701171875,-0.2357177734375,-0.1397705078125,4.45556640625,-0.6103515625,2.44140625
-0.954833984375,-0.2105712890625,-0.1104736328125,2.01416015625,-0.1220703050494194,4.33349609375
-0.946533203125,-0.2276611328125,-0.1343994140625,5.432128429412842,2.25830078125,5.310058116912842
-0.9337158203125,-0.2498779296875,-0.1290283203125,4.45556640625,2.807616949081421,2.746581792831421
-0.95654296875,-0.2247314453125,-0.1229248046875,3.173827886581421,3.295898199081421,-0.54931640625
-0.9595947265625,-0.2247314453125,-0.113525390625,5.187987804412842,3.234863042831421,-1.0986328125
-0.9407958984375,-0.2203369140625,-0.1287841796875,7.446288585662842,5.0048828125,0.54931640625
-0.919677734375,-0.242431640625,-0.141357421875,8.544921875,4.21142578125,1.5258787870407104
-0.925537109375,-0.223388671875,-0.09326171875,7.690429210662842,3.356933355331421,1.4038084745407104
-0.94775390625,-0.2120361328125,-0.1004638671875,16.2353515625,4.57763671875,3.356933355331421
-0.965087890625,-0.2705078125,-0.1405029296875,14.526366233825684,4.5166015625,2.197265625
-0.98046875,-0.25634765625,-0.148681640625,10.314940452575684,3.967284917831421,0.1220703050494194
-0.9764404296875,-0.219970703125,-0.1148681640625,13.732909202575684,4.150390625,1.2817381620407104
-0.951416015625,-0.2269287109375,-0.143310546875,15.686034202575684,4.69970703125,4.21142578125
-0.9384765625,-0.2703857421875,-0.1275634765625,6.530761241912842,2.685546636581421,2.685546636581421
-0.927978515625,-0.21240234375,-0.10498046875,3.662109136581421,2.01416015625,1.8310545682907104
-0.9296875,-0.2249755859375,-0.1444091796875,8.60595703125,3.173827886581421,2.3193359375
-0.919189453125,-0.267333984375,-0.144287109375,1.7089842557907104,1.15966796875,-0.7324218153953552
-0.9381103515625,-0.2166748046875,-0.0997314453125,-5.432128429412842,-0.54931640625,-1.5258787870407104
-0.950927734375,-0.18896484375,-0.0797119140625,-0.9155272841453552,0.6713866591453552,0.2441406100988388
-2.2218017578125,0.07763671875,-0.2847900390625,-0.9155272841453552,-17.51708984375,49.621578216552734
-2.364013671875,-0.0692138671875,-0.2813720703125,5.065917491912842,-40.283199310302734,102.05077362060547
-2.1939697265625,-0.3143310546875,-0.3140869140625,37.04833984375,-59.570308685302734,139.5263671875
-2.0086669921875,-0.4752197265625,-0.3614501953125,36.92626953125,-60.913082122802734,148.37646484375
-1.5684814453125,-0.6527099609375,-0.4119873046875,6.835937023162842,-59.082027435302734,143.85986328125
-1.168212890625,-0.6219482421875,-0.196044921875,-1.15966796875,-42.663570404052734,131.16455078125
-0.28759765625,-0.636962890625,-0.1812744140625,-13.183592796325684,-5.676269054412842,59.692378997802734
0.00927734375,-0.3009033203125,-0.055908203125,-7.873534679412842,20.935056686401367,-8.60595703125
0.02685546875,-0.3056640625,-0.14892578125,-8.23974609375,17.822265625,-17.7001953125
-0.0552978515625,-0.3424072265625,0.044189453125,-4.45556640625,20.263669967651367,-11.169432640075684
-0.1632080078125,-0.2855224609375,-0.02587890625,9.27734375,24.780271530151367,-9.94873046875
-0.277099609375,-0.4036865234375,-0.17041015625,5.676269054412842,20.324705123901367,-3.845214605331421
-0.4212646484375,-0.3779296875,-0.00341796875,-3.417968511581421,14.465331077575684,-0.54931640625
-0.54443359375,-0.50634765625,-0.0687255859375,11.901854515075684,14.648436546325684,5.676269054412842
-0.6707763671875,-0.6470947265625,-0.183837890625,3.234863042831421,8.6669921875,5.615233898162842
-0.773681640625,-0.68017578125,-0.1566162109375,-12.329100608825684,1.15966796875,4.0283203125
-0.8109130859375,-0.6806640625,-0.104248046875,1.2817381620407104,0.2441406100988388,3.479003667831421
-0.842529296875,-0.694091796875,-0.2064208984375,-0.2441406100988388,0.0610351525247097,0.54931640625
-0.8238525390625,-0.70703125,-0.1729736328125,-21.789548873901367,-4.150390625,-3.234863042831421
-0.806640625,-0.6612548828125,-0.1324462890625,-5.676269054412842,-0.9765624403953552,-4.5166015625
-0.7977294921875,-0.7137451171875,-0.1832275390625,-10.070799827575684,0.54931640625,-3.967284917831421
-0.7998046875,-0.6568603515625,-0.170654296875,-17.51708984375,3.051757574081421,-2.990722417831421
-0.77099609375,-0.639892578125,-0.141845703125,-3.845214605331421,8.97216796875,-3.540038824081421
-0.75390625,-0.6441650390625,-0.13037109375,-0.9155272841453552,12.756346702575684,-3.784179449081421
-0.7327880859375,-0.6226806640625,-0.1217041015625,-6.042479991912842,11.291502952575684,-3.540038824081421
-0.6845703125,-0.593017578125,-0.0972900390625,0.2441406100988388,8.544921875,-2.807616949081421
-0.6663818359375,-0.5712890625,-0.0501708984375,2.624511480331421,6.469726085662842,-2.13623046875
-0.63232421875,-0.6009521484375,-0.1500244140625,-2.44140625,5.554198741912842,-3.417968511581421
-0.5943603515625,-0.553955078125,-0.044189453125,-6.164550304412842,-2.25830078125,-0.30517578125
-0.5594482421875,-0.4793701171875,-0.0164794921875,-3.540038824081421,-2.197265625,-0.7934569716453552
-0.4881591796875,-0.4764404296875,-0.0799560546875,8.056640625,-2.44140625,1.03759765625
-0.3973388671875,-0.491455078125,-0.1065673828125,-12.695311546325684,-12.939452171325684,5.798339366912842
-0.4276123046875,-0.4141845703125,-0.0225830078125,-10.314940452575684,-13.244627952575684,5.0048828125
-0.385498046875,-0.57470703125,-0.086181640625,8.30078125,-16.05224609375,10.253905296325684
-0.4718017578125,-0.45703125,-0.09228515625,-17.578125,-27.954099655151367,9.3994140625
-0.4951171875,-0.56103515625,0.031982421875,10.925292015075684,-10.986327171325684,-4.57763671875
-0.4818115234375,-0.6580810546875,-0.380615234375,13.671874046325684,-22.338865280151367,-0.7934569716453552
-0.817138671875,-0.662841796875,-0.06396484375,-29.296873092651367,-11.901854515075684,-25.329587936401367
-0.60498046875,-0.6859130859375,-0.2205810546875,34.7900390625,-6.347655773162842,-19.4091796875
-0.8623046875,-0.6650390625,-0.280517578125,-35.21728515625,-14.465331077575684,-22.827146530151367
-0.8248291015625,-0.6922607421875,-0.1568603515625,-25.878904342651367,2.38037109375,-46.203609466552734
-0.710205078125,-0.7918701171875,-0.291259765625,11.169432640075684,-4.69970703125,-28.076169967651367
-1.08447265625,-0.57080078125,-0.1365966796875,-56.945796966552734,-3.417968511581421,-45.654293060302734
-0.8197021484375,-0.6253662109375,-0.1572265625,-5.249022960662842,3.417968511581421,-50.964351654052734
-0.9334716796875,-0.6766357421875,-0.22607421875,-17.15087890625,0.7324218153953552,-43.518062591552734
-1.1802978515625,-0.5943603515625,-0.142333984375,-48.583980560302734,6.164550304412842,-53.405757904052734
-0.9393310546875,-0.5526123046875,-0.2044677734375,-1.5258787870407104,8.9111328125,-46.447750091552734
-0.9317626953125,-0.5926513671875,-0.0902099609375,-26.367185592651367,3.295898199081421,-44.067378997802734
-1.119140625,-0.4296875,-0.1070556640625,-22.766111373901367,3.967284917831421,-49.011226654052734
-1.028076171875,-0.4788818359375,-0.12646484375,-2.3193359375,1.3427733182907104,-45.104976654052734
-0.9827880859375,-0.4388427734375,-0.0748291015625,-11.962889671325684,0.6713866591453552,-49.560543060302734
-1.06005859375,-0.4012451171875,-0.1431884765625,2.563476324081421,5.920409679412842,-46.874996185302734
-1.015869140625,-0.4222412109375,-0.1766357421875,9.521484375,1.5258787870407104,-41.320796966552734
-0.9991455078125,-0.3763427734375,-0.06884765625,-13.916014671325684,0.0610351525247097,-42.175289154052734
-1.095703125,-0.2784423828125,-0.0595703125,-1.7089842557907104,6.347655773162842,-38.87939453125
-1.0689697265625,-0.3382568359375,-0.1982421875,11.230467796325684,6.835937023162842,-33.26416015625
-0.994140625,-0.2977294921875,-0.1239013671875,7.690429210662842,0.9765624403953552,-32.2265625
-0.9691162109375,-0.21826171875,-0.0333251953125,-5.615233898162842,-0.1831054538488388,-30.212400436401367
-1.006103515625,-0.235107421875,-0.057373046875,5.798339366912842,2.868652105331421,-27.526853561401367
-0.99169921875,-0.276611328125,-0.15234375,12.939452171325684,5.676269054412842,-21.362302780151367
-0.9755859375,-0.3028564453125,-0.165283203125,4.150390625,2.25830078125,-22.155759811401367
-0.9976806640625,-0.216796875,-0.0594482421875,4.39453125,1.8310545682907104,-21.301267623901367
-1.0140380859375,-0.2447509765625,-0.0457763671875,10.559081077575684,2.3193359375,-15.563963890075684
-0.9954833984375,-0.2835693359375,-0.11962890625,6.225585460662842,1.8920897245407104,-13.305663108825684
-1.0263671875,-0.28271484375,-0.11328125,2.807616949081421,0.9765624403953552,-11.474608421325684
-1.047119140625,-0.2303466796875,-0.07373046875,2.50244140625,3.540038824081421,-8.97216796875
-1.0355224609375,-0.2723388671875,-0.0830078125,3.356933355331421,2.563476324081421,-5.126952648162842
-1.04443359375,-0.2547607421875,-0.077880859375,-2.746581792831421,1.0986328125,-3.845214605331421
-1.018798828125,-0.214111328125,-0.0665283203125,-1.4648436307907104,1.7700194120407104,-2.0751953125
-1.003662109375,-0.2291259765625,-0.0849609375,3.356933355331421,1.5869139432907104,-1.7089842557907104
-0.97119140625,-0.2569580078125,-0.1063232421875,-2.807616949081421,-1.9531248807907104,-1.15966796875
-0.947265625,-0.2041015625,-0.0765380859375,-2.807616949081421,-0.9765624403953552,-2.990722417831421
-0.9586181640625,-0.1851806640625,-0.050537109375,8.4228515625,2.13623046875,-3.295898199081421
-0.97412109375,-0.2301025390625,-0.090576171875,15.380858421325684,3.967284917831421,-2.197265625
-0.9642333984375,-0.2529296875,-0.1075439453125,11.718749046325684,1.6479490995407104,-2.38037109375
-0.986572265625,-0.1964111328125,-0.0888671875,6.286620616912842,1.15966796875,-4.21142578125
-0.9908447265625,-0.198974609375,-0.0538330078125,10.925292015075684,2.3193359375,-2.929687261581421
-0.976806640625,-0.212158203125,-0.0999755859375,13.793944358825684,2.3193359375,-0.4272460639476776
-0.974609375,-0.2344970703125,-0.095947265625,9.27734375,0.0610351525247097,-1.6479490995407104
-0.9808349609375,-0.210693359375,-0.072998046875,4.150390625,-1.2817381620407104,-3.112792730331421
-0.966552734375,-0.20751953125,-0.07666015625,2.746581792831421,-1.2817381620407104,-0.8544921278953552
-0.972412109375,-0.2249755859375,-0.0965576171875,-0.3662109076976776,-2.563476324081421,-2.25830078125
-0.982177734375,-0.2230224609375,-0.0850830078125,-6.225585460662842,-3.112792730331421,-3.112792730331421
-0.970947265625,-0.200927734375,-0.0865478515625,-3.356933355331421,-1.5869139432907104,-2.25830078125
-0.95947265625,-0.2198486328125,-0.0992431640625,-5.981444835662842,-1.7700194120407104,-3.112792730331421
-0.97021484375,-0.2158203125,-0.09521484375,-7.690429210662842,-2.44140625,-3.173827886581421
-0.96728515625,-0.2122802734375,-0.081787109375,-7.080077648162842,-3.540038824081421,-1.7700194120407104
-0.9649658203125,-0.1964111328125,-0.0965576171875,-4.150390625,-2.624511480331421,-0.2441406100988388
-0.9581298828125,-0.2049560546875,-0.107177734375,-0.8544921278953552,-1.9531248807907104,-0.6103515625
-0.9739990234375,-0.2225341796875,-0.1002197265625,-2.3193359375,-2.25830078125,-1.8920897245407104
-0.994873046875,-0.2139892578125,-0.08447265625,-0.1220703050494194,-1.8920897245407104,-2.38037109375
-0.9892578125,-0.201904296875,-0.095947265625,4.150390625,-0.4882812201976776,-2.197265625
-0.9840087890625,-0.216552734375,-0.107177734375,2.685546636581421,-0.54931640625,-2.25830078125
-0.986328125,-0.2080078125,-0.0958251953125,1.8920897245407104,-0.3662109076976776,-1.9531248807907104
-0.976318359375,-0.2022705078125,-0.10595703125,6.286620616912842,0.6103515625,-0.54931640625
-0.97509765625,-0.2235107421875,-0.1072998046875,5.126952648162842,0.8544921278953552,-1.3427733182907104
-0.9835205078125,-0.20166015625,-0.0897216796875,2.50244140625,0.54931640625,-2.13623046875
-0.981201171875,-0.193603515625,-0.089599609375,4.94384765625,0.3662109076976776,-0.8544921278953552
-0.970458984375,-0.2208251953125,-0.1044921875,2.868652105331421,0.1220703050494194,-1.2817381620407104
-0.974853515625,-0.2017822265625,-0.10205078125,-0.30517578125,0.0,-2.01416015625
-0.971435546875,-0.1956787109375,-0.0947265625,0.30517578125,0.0610351525247097,-1.4648436307907104
-0.973388671875,-0.191650390625,-0.1046142578125,3.723144292831421,1.5869139432907104,-0.6713866591453552
-0.966796875,-0.217041015625,-0.12158203125,5.798339366912842,2.38037109375,0.0
-0.9718017578125,-0.220703125,-0.110107421875,2.868652105331421,1.4648436307907104,-1.5869139432907104
-0.973876953125,-0.2000732421875,-0.093505859375,1.3427733182907104,0.4272460639476776,-2.0751953125
-0.9775390625,-0.193359375,-0.09814453125,3.662109136581421,0.4882812201976776,-1.0986328125
-0.9669189453125,-0.204833984375,-0.114501953125,4.33349609375,0.7934569716453552,0.8544921278953552
-0.951171875,-0.2152099609375,-0.1033935546875,2.0751953125,0.7934569716453552,1.4648436307907104
-0.9534912109375,-0.19677734375,-0.09814453125,2.746581792831421,0.54931640625,2.38037109375
-0.9671630859375,-0.2130126953125,-0.094970703125,1.5258787870407104,-0.1220703050494194,2.624511480331421
-0.9912109375,-0.21630859375,-0.1075439453125,0.54931640625,-0.7324218153953552,2.50244140625
-0.997802734375,-0.2281494140625,-0.1072998046875,0.1220703050494194,-1.8920897245407104,1.7700194120407104
-1.0030517578125,-0.208740234375,-0.0897216796875,-0.9765624403953552,-1.3427733182907104,1.2817381620407104
-0.9857177734375,-0.1998291015625,-0.113037109375,2.563476324081421,-0.1831054538488388,3.051757574081421
-0.98193359375,-0.2261962890625,-0.1051025390625,0.0,-0.4882812201976776,2.868652105331421
-0.9757080078125,-0.207763671875,-0.0977783203125,-0.1831054538488388,-0.4882812201976776,2.990722417831421
-0.9683837890625,-0.2088623046875,-0.09619140625,0.7324218153953552,-0.9155272841453552,2.807616949081421
-2.085693359375,-0.3004150390625,-0.312255859375,18.12744140625,-51.025386810302734,134.8876953125
-1.9339599609375,-0.474609375,-0.3375244140625,29.052732467651367,-58.166500091552734,156.494140625
-1.7476806640625,-0.7867431640625,-0.4559326171875,21.728513717651367,-54.565425872802734,162.29246520996094
-1.393310546875,-0.7301025390625,-0.402099609375,16.66259765625,-57.067867279052734,156.1279296875
-0.98046875,-0.66162109375,-0.2103271484375,4.638671875,-39.48974609375,134.033203125
-0.6961669921875,-0.6510009765625,-0.18212890625,4.8828125,-23.925779342651367,114.01366424560547
-0.3489990234375,-0.6241455078125,-0.3026123046875,4.57763671875,-12.939452171325684,80.26123046875
-0.1197509765625,-0.4886474609375,-0.1793212890625,-13.183592796325684,-10.314940452575684,42.785640716552734
-0.0174560546875,-0.3941650390625,0.0482177734375,-7.324218273162842,0.6103515625,8.48388671875
0.0135498046875,-0.3822021484375,-0.0128173828125,7.812499523162842,8.1787109375,-6.774901866912842
0.0721435546875,-0.3897705078125,-0.148681640625,-1.220703125,7.446288585662842,-9.521484375
-0.07177734375,-0.18115234375,0.023681640625,12.023924827575684,20.01953125,-10.009765625
-0.154541015625,-0.2733154296875,-0.0296630859375,10.742186546325684,29.907224655151367,-9.1552734375
-0.229736328125,-0.3089599609375,-0.1500244140625,-7.507323741912842,17.333984375,-10.009765625
-0.3853759765625,-0.376708984375,-0.03125,-4.57763671875,12.512206077575684,-5.249022960662842
-0.461669921875,-0.5806884765625,-0.1807861328125,2.38037109375,11.169432640075684,-1.8310545682907104
-0.5782470703125,-0.652099609375,-0.240478515625,-2.746581792831421,2.197265625,-2.25830078125
-0.6966552734375,-0.7652587890625,-0.2496337890625,-5.126952648162842,-7.507323741912842,3.540038824081421
-0.7333984375,-0.736083984375,-0.2017822265625,-20.202634811401367,-11.474608421325684,3.967284917831421
-0.74169921875,-0.7000732421875,-0.249267578125,-2.44140625,-3.784179449081421,3.784179449081421
-0.7464599609375,-0.740234375,-0.2821044921875,-10.925292015075684,-4.69970703125,4.150390625
-0.7425537109375,-0.6983642578125,-0.225830078125,-12.390135765075684,-3.479003667831421,3.295898199081421
-0.7137451171875,-0.68408203125,-0.2205810546875,-5.0048828125,1.0986328125,0.9155272841453552
-0.698974609375,-0.6746826171875,-0.2200927734375,1.15966796875,5.0048828125,0.1220703050494194
-0.6641845703125,-0.6563720703125,-0.235595703125,-0.2441406100988388,5.981444835662842,-1.15966796875
-0.653564453125,-0.629150390625,-0.2218017578125,4.45556640625,5.676269054412842,-1.2817381620407104
-0.658203125,-0.6778564453125,-0.2261962890625,-1.9531248807907104,5.065917491912842,-2.746581792831421
-0.6571044921875,-0.6539306640625,-0.2042236328125,-3.845214605331421,4.0283203125,-3.479003667831421
-0.649169921875,-0.674560546875,-0.2091064453125,6.286620616912842,2.197265625,-1.5869139432907104
-0.64404296875,-0.68505859375,-0.2130126953125,-4.57763671875,-3.417968511581421,0.30517578125
-0.6268310546875,-0.67431640625,-0.14404296875,-10.681151390075684,-4.57763671875,0.1831054538488388
-0.515380859375,-0.671630859375,-0.1729736328125,-7.141112804412842,-7.141112804412842,3.479003667831421
-0.418701171875,-0.6304931640625,-0.1123046875,-11.779784202575684,-16.11328125,8.056640625
-0.435791015625,-0.54248046875,-0.087158203125,-9.82666015625,-16.90673828125,9.94873046875
-0.3814697265625,-0.559814453125,-0.1849365234375,-14.282225608825684,-20.568845748901367,15.075682640075684
-0.439453125,-0.5135498046875,-0.196533203125,-19.1650390625,-21.911619186401367,17.9443359375
-0.420166015625,-0.5831298828125,-0.17138671875,-0.8544921278953552,-15.747069358825684,14.587401390075684
-0.46728515625,-0.6065673828125,-0.2440185546875,7.995604991912842,-13.061522483825684,13.671874046325684
-0.5611572265625,-0.618896484375,-0.2593994140625,4.150390625,-7.751464366912842,0.0610351525247097
-0.5032958984375,-0.6551513671875,-0.296875,20.446775436401367,-7.019042491912842,-1.7700194120407104
-0.719970703125,-0.5657958984375,-0.1636962890625,18.4326171875,2.01416015625,-13.183592796325684
-0.6524658203125,-0.73779296875,-0.36181640625,44.433589935302734,18.37158203125,-22.277830123901367
-0.5301513671875,-0.79541015625,-0.5311279296875,13.549803733825684,-2.50244140625,-19.1650390625
-0.8885498046875,-0.5657958984375,-0.0753173828125,-25.146482467651367,-7.080077648162842,-28.564451217651367
-0.7559814453125,-0.7052001953125,-0.2376708984375,3.112792730331421,19.6533203125,-42.663570404052734
-0.601318359375,-0.884033203125,-0.6077880859375,8.23974609375,13.488768577575684,-28.930662155151367
-0.9415283203125,-0.5418701171875,-0.0877685546875,-49.987789154052734,0.2441406100988388,-44.616695404052734
-0.8922119140625,-0.5985107421875,-0.0115966796875,-22.155759811401367,18.4326171875,-56.274410247802734
-0.7288818359375,-0.808349609375,-0.4056396484375,-3.601073980331421,15.441893577575684,-44.921871185302734
-0.9603271484375,-0.6439208984375,-0.30322265625,-58.898921966552734,1.03759765625,-53.649898529052734
-1.0479736328125,-0.6220703125,-0.083740234375,-33.69140625,8.48388671875,-60.546871185302734
-0.89697265625,-0.648193359375,-0.248046875,-5.493163585662842,6.469726085662842,-47.180171966552734
-0.906494140625,-0.6602783203125,-0.2742919921875,-50.170894622802734,-4.82177734375,-46.447750091552734
-0.9561767578125,-0.5841064453125,-0.1500244140625,4.8828125,5.920409679412842,-42.480464935302734
-1.0338134765625,-0.564697265625,-0.3123779296875,-3.967284917831421,3.295898199081421,-38.26904296875
-0.9345703125,-0.485595703125,-0.1654052734375,-12.939452171325684,0.4882812201976776,-36.31591796875
-0.9488525390625,-0.427734375,-0.0855712890625,9.94873046875,5.493163585662842,-34.0576171875
-0.952880859375,-0.4395751953125,-0.165283203125,19.71435546875,5.920409679412842,-28.259275436401367
-0.9393310546875,-0.4627685546875,-0.16259765625,4.39453125,3.967284917831421,-27.221677780151367
-0.9320068359375,-0.4052734375,-0.1346435546875,8.9111328125,7.080077648162842,-25.268552780151367
-0.952392578125,-0.39404296875,-0.1475830078125,19.287109375,9.33837890625,-23.132322311401367
-0.96630859375,-0.4041748046875,-0.1524658203125,15.686034202575684,7.263183116912842,-21.118162155151367
-0.9453125,-0.3280029296875,-0.09326171875,15.380858421325684,6.958007335662842,-21.057126998901367
-0.930419921875,-0.33447265625,-0.15478515625,16.2353515625,7.934569835662842,-19.83642578125
-0.936767578125,-0.367431640625,-0.193603515625,11.596678733825684,5.432128429412842,-23.254392623901367
-0.961669921875,-0.3167724609375,-0.12646484375,18.6767578125,4.45556640625,-26.733396530151367
-1.009765625,-0.2716064453125,-0.11376953125,26.855466842651367,9.1552734375,-28.076169967651367
-0.9461669921875,-0.3175048828125,-0.2501220703125,27.038572311401367,7.141112804412842,-29.663084030151367
-0.95068359375,-0.283447265625,-0.1558837890625,12.329100608825684,5.432128429412842,-34.60693359375
-0.9842529296875,-0.2381591796875,-0.0997314453125,6.896972179412842,6.652831554412842,-31.188962936401367
-1.005859375,-0.199462890625,-0.1138916015625,12.817381858825684,7.751464366912842,-25.878904342651367
-1.0189208984375,-0.2303466796875,-0.181884765625,15.624999046325684,8.72802734375,-21.423337936401367
-0.999267578125,-0.25048828125,-0.1959228515625,8.544921875,6.164550304412842,-18.49365234375
-1.0125732421875,-0.202392578125,-0.1395263671875,-1.0986328125,4.57763671875,-18.49365234375
-1.02001953125,-0.1868896484375,-0.121826171875,0.0,3.234863042831421,-16.6015625
-1.01953125,-0.2100830078125,-0.1427001953125,1.9531248807907104,3.356933355331421,-13.610838890075684
-0.9869384765625,-0.2464599609375,-0.1834716796875,2.746581792831421,0.6103515625,-11.962889671325684
-0.99755859375,-0.2105712890625,-0.1466064453125,-2.01416015625,0.1220703050494194,-12.207030296325684
-0.998779296875,-0.1986083984375,-0.1153564453125,-5.371093273162842,1.8310545682907104,-12.878417015075684
-0.9837646484375,-0.2117919921875,-0.1422119140625,-4.08935546875,2.13623046875,-10.681151390075684
-0.97607421875,-0.183349609375,-0.1546630859375,-2.624511480331421,2.13623046875,-6.225585460662842
-0.9716796875,-0.1898193359375,-0.12841796875,-1.6479490995407104,2.746581792831421,-3.051757574081421
-0.95654296875,-0.2021484375,-0.120361328125,0.9155272841453552,1.6479490995407104,-2.0751953125
-0.9544677734375,-0.221435546875,-0.1243896484375,0.2441406100988388,0.9765624403953552,-2.25830078125
-0.96240234375,-0.220947265625,-0.14306640625,-0.0610351525247097,2.0751953125,-3.112792730331421
-0.9559326171875,-0.2470703125,-0.1236572265625,-1.3427733182907104,1.2817381620407104,-3.967284917831421
-0.966796875,-0.213134765625,-0.115966796875,-0.54931640625,1.8920897245407104,-2.3193359375
-0.9627685546875,-0.223388671875,-0.117431640625,-0.1831054538488388,0.9155272841453552,-0.6713866591453552
-0.9664306640625,-0.206298828125,-0.1275634765625,-1.15966796875,1.8310545682907104,1.5258787870407104
-0.9647216796875,-0.216064453125,-0.1361083984375,-0.9765624403953552,1.3427733182907104,2.13623046875
-0.9725341796875,-0.1937255859375,-0.121826171875,-4.94384765625,1.03759765625,2.44140625
-0.9735107421875,-0.201171875,-0.12060546875,-5.554198741912842,1.3427733182907104,3.234863042831421
-0.98486328125,-0.2120361328125,-0.1383056640625,-1.8920897245407104,1.5869139432907104,2.3193359375
-0.9901123046875,-0.214111328125,-0.135009765625,-2.50244140625,1.2817381620407104,1.8920897245407104
-0.9794921875,-0.1749267578125,-0.106689453125,-3.906249761581421,1.4648436307907104,3.417968511581421
-0.968017578125,-0.1640625,-0.123046875,0.8544921278953552,1.5869139432907104,5.676269054412842
-0.9683837890625,-0.1885986328125,-0.13232421875,0.30517578125,1.2817381620407104,5.493163585662842
-0.9755859375,-0.1820068359375,-0.130615234375,2.0751953125,1.2817381620407104,3.417968511581421
-0.9796142578125,-0.19189453125,-0.132568359375,3.967284917831421,1.4038084745407104,1.8310545682907104
-0.976806640625,-0.190185546875,-0.1201171875,1.9531248807907104,1.220703125,1.0986328125
-0.9742431640625,-0.1990966796875,-0.11328125,1.220703125,0.4272460639476776,1.2817381620407104
-0.97705078125,-0.2181396484375,-0.1234130859375,-0.1831054538488388,-0.6103515625,1.2817381620407104
-0.9913330078125,-0.2021484375,-0.1114501953125,-4.638671875,-1.03759765625,0.30517578125
-0.9932861328125,-0.1845703125,-0.11572265625,-2.13623046875,0.6103515625,1.15966796875
-0.97705078125,-0.21923828125,-0.1221923828125,-0.7324218153953552,0.6713866591453552,2.44140625
-0.968994140625,-0.200439453125,-0.119384765625,-3.723144292831421,0.4272460639476776,2.0751953125
-0.9632568359375,-0.2041015625,-0.107177734375,-3.479003667831421,0.0,2.13623046875
-0.963623046875,-0.1944580078125,-0.100341796875,-1.8310545682907104,-0.6713866591453552,1.7089842557907104
-0.9627685546875,-0.212158203125,-0.1043701171875,-2.3193359375,-0.54931640625,0.9765624403953552
-0.968505859375,-0.216796875,-0.1217041015625,-0.4882812201976776,-0.4882812201976776,0.7934569716453552
-0.9736328125,-0.2137451171875,-0.1173095703125,1.3427733182907104,-0.30517578125,1.7089842557907104
-0.9764404296875,-0.2130126953125,-0.1016845703125,1.4038084745407104,0.1831054538488388,2.685546636581421
-0.9805908203125,-0.2215576171875,-0.103515625,2.685546636581421,0.9155272841453552,2.50244140625
-0.9647216796875,-0.2318115234375,-0.1219482421875,2.624511480331421,0.9155272841453552,1.9531248807907104
-0.95166015625,-0.220947265625,-0.113037109375,0.9155272841453552,0.9155272841453552,1.4038084745407104
-0.9530029296875,-0.228271484375,-0.1097412109375,0.9765624403953552,1.3427733182907104,1.5869139432907104
-2.0819091796875,-0.3658447265625,-0.323974609375,48.583980560302734,-54.504390716552734,143.61572265625
-2.052001953125,-0.4930419921875,-0.521728515625,57.312007904052734,-66.22314453125,161.98728942871094
-1.6962890625,-0.7279052734375,-0.4100341796875,11.535643577575684,-74.76806640625,163.45213317871094
-1.304443359375,-0.6485595703125,-0.32568359375,9.94873046875,-67.81005859375,149.658203125
-0.8863525390625,-0.6767578125,-0.2518310546875,14.465331077575684,-52.673336029052734,130.859375
-0.5777587890625,-0.64990234375,-0.24951171875,6.225585460662842,-34.24072265625,102.84423065185547
-0.3433837890625,-0.5595703125,-0.2742919921875,4.08935546875,-23.620603561401367,69.88525390625
-0.2044677734375,-0.53173828125,-0.1207275390625,1.6479490995407104,-13.671874046325684,39.6728515625
-0.1036376953125,-0.43701171875,-0.0283203125,1.7700194120407104,-0.7934569716453552,11.108397483825684
-0.036376953125,-0.2916259765625,-0.0728759765625,9.33837890625,9.3994140625,-7.995604991912842
-0.0174560546875,-0.3046875,-0.05322265625,19.8974609375,15.747069358825684,-16.845703125
-0.072509765625,-0.37451171875,-0.154296875,25.390623092651367,22.338865280151367,-15.136717796325684
-0.1439208984375,-0.3892822265625,-0.1951904296875,35.400390625,21.057126998901367,-9.27734375
-0.26318359375,-0.3773193359375,-0.1224365234375,27.954099655151367,15.563963890075684,-3.845214605331421
-0.343017578125,-0.437255859375,-0.1729736328125,27.465818405151367,11.779784202575684,2.0751953125
-0.470458984375,-0.52490234375,-0.2958984375,20.446775436401367,5.737304210662842,6.774901866912842
-0.56103515625,-0.591552734375,-0.365478515625,4.39453125,0.3662109076976776,9.033203125
-0.654296875,-0.605712890625,-0.22998046875,0.7324218153953552,2.44140625,7.812499523162842
-0.6796875,-0.67333984375,-0.31494140625,-1.9531248807907104,3.601073980331421,8.60595703125
-0.737548828125,-0.720947265625,-0.370849609375,-21.545408248901367,0.2441406100988388,5.554198741912842
-0.7415771484375,-0.687255859375,-0.3453369140625,-27.099607467651367,-0.4272460639476776,1.5258787870407104
-0.7425537109375,-0.68505859375,-0.28564453125,-16.6015625,2.563476324081421,-2.990722417831421
-0.7572021484375,-0.6812744140625,-0.3333740234375,-21.850584030151367,4.45556640625,-6.347655773162842
-0.6806640625,-0.685546875,-0.373291015625,-24.169919967651367,0.6713866591453552,-3.906249761581421
-0.7186279296875,-0.6396484375,-0.27880859375,-12.390135765075684,7.385253429412842,-5.126952648162842
-0.6343994140625,-0.6712646484375,-0.3011474609375,1.7089842557907104,11.413573265075684,-2.624511480331421
-0.679931640625,-0.6239013671875,-0.2928466796875,-5.859374523162842,9.765625,-2.929687261581421
-0.65234375,-0.6624755859375,-0.3173828125,2.929687261581421,8.6669921875,-0.9155272841453552
-0.68505859375,-0.6470947265625,-0.275634765625,4.82177734375,7.446288585662842,-1.8310545682907104
-0.6912841796875,-0.644775390625,-0.3458251953125,-2.13623046875,7.446288585662842,-3.601073980331421
-0.701904296875,-0.6571044921875,-0.2691650390625,1.2817381620407104,5.920409679412842,-5.798339366912842
-0.70703125,-0.6246337890625,-0.23876953125,5.126952648162842,4.94384765625,-6.896972179412842
-0.7105712890625,-0.6820068359375,-0.3516845703125,-1.5869139432907104,4.21142578125,-8.30078125
-0.702880859375,-0.6431884765625,-0.3021240234375,-2.25830078125,2.990722417831421,-8.97216796875
-0.6571044921875,-0.61669921875,-0.227783203125,-0.2441406100988388,3.234863042831421,-8.544921875
-0.6370849609375,-0.600341796875,-0.1934814453125,-1.5258787870407104,5.187987804412842,-10.986327171325684
-0.574951171875,-0.5477294921875,-0.1806640625,-1.7700194120407104,4.69970703125,-9.6435546875
-0.4906005859375,-0.5240478515625,-0.2095947265625,-8.6669921875,2.807616949081421,-6.286620616912842
-0.482177734375,-0.495361328125,-0.13525390625,-15.991209983825684,12.451170921325684,-6.591796398162842
-0.4808349609375,-0.5421142578125,-0.2733154296875,-13.000487327575684,26.428220748901367,-1.8310545682907104
-0.5484619140625,-0.592529296875,-0.2681884765625,-17.63916015625,27.709959030151367,-2.685546636581421
-0.6102294921875,-0.59716796875,-0.15869140625,-25.390623092651367,24.536130905151367,-0.9765624403953552
-0.55859375,-0.6231689453125,-0.1661376953125,-22.521970748901367,15.319823265075684,4.08935546875
-0.5760498046875,-0.6319580078125,-0.1112060546875,-16.357421875,5.981444835662842,5.981444835662842
-0.6260986328125,-0.6455078125,-0.0877685546875,-15.502928733825684,9.21630859375,1.15966796875
-0.4425048828125,-0.612060546875,-0.378662109375,-7.080077648162842,-3.417968511581421,4.21142578125
-0.6796875,-0.7271728515625,-0.038818359375,-31.372068405151367,-7.080077648162842,-1.8920897245407104
-0.6015625,-0.668701171875,-0.1025390625,-31.311033248901367,-1.03759765625,-16.41845703125
-0.5650634765625,-0.6046142578125,-0.360595703125,0.6103515625,-1.8920897245407104,-11.840819358825684
-0.8909912109375,-0.7674560546875,-0.109130859375,-43.395992279052734,-6.408690929412842,-18.98193359375
-0.7791748046875,-0.7098388671875,-0.1021728515625,-19.1650390625,0.2441406100988388,-41.809078216552734
-0.719970703125,-0.63671875,-0.31787109375,9.09423828125,-4.08935546875,-25.634763717651367
-0.9345703125,-0.68115234375,-0.145263671875,-44.616695404052734,-4.82177734375,-30.639646530151367
-0.9237060546875,-0.6937255859375,-0.0904541015625,-0.1220703050494194,8.056640625,-43.090816497802734
-0.854248046875,-0.7000732421875,-0.335205078125,9.70458984375,2.563476324081421,-31.677244186401367
-1.1341552734375,-0.64794921875,-0.204345703125,-37.04833984375,-1.8920897245407104,-32.71484375
-1.007080078125,-0.58056640625,-0.070556640625,-6.225585460662842,1.220703125,-31.188962936401367
-0.93603515625,-0.5955810546875,-0.0430908203125,9.27734375,9.09423828125,-22.705076217651367
-0.9949951171875,-0.55224609375,-0.177978515625,8.30078125,11.779784202575684,-24.902341842651367
-0.9835205078125,-0.6107177734375,-0.252685546875,16.9677734375,8.056640625,-21.057126998901367
-0.9224853515625,-0.5478515625,-0.0985107421875,-2.868652105331421,5.920409679412842,-21.118162155151367
-0.968505859375,-0.45166015625,-0.0626220703125,9.94873046875,8.6669921875,-20.385740280151367
-0.988525390625,-0.5128173828125,-0.232421875,19.22607421875,5.798339366912842,-17.51708984375
-0.947998046875,-0.4947509765625,-0.1214599609375,-5.310058116912842,-0.2441406100988388,-19.1650390625
-0.90478515625,-0.4063720703125,-0.0390625,0.8544921278953552,3.479003667831421,-18.73779296875
-0.8775634765625,-0.388671875,-0.109375,19.22607421875,7.568358898162842,-18.37158203125
-0.890869140625,-0.4942626953125,-0.19677734375,8.11767578125,9.09423828125,-22.583005905151367
-0.9049072265625,-0.471435546875,-0.1795654296875,0.7934569716453552,8.056640625,-28.747556686401367
-0.9248046875,-0.384033203125,-0.111572265625,1.4038084745407104,6.347655773162842,-29.724119186401367
-0.927734375,-0.4078369140625,-0.0618896484375,4.2724609375,5.615233898162842,-29.907224655151367
-0.9454345703125,-0.3995361328125,-0.1290283203125,17.15087890625,5.432128429412842,-27.343748092651367
-0.9378662109375,-0.4093017578125,-0.1629638671875,8.4228515625,1.220703125,-26.855466842651367
-0.950927734375,-0.357666015625,-0.08935546875,-10.559081077575684,-0.9155272841453552,-28.930662155151367
-0.988037109375,-0.3233642578125,-0.07861328125,-3.112792730331421,5.920409679412842,-25.573728561401367
-0.9688720703125,-0.36572265625,-0.1851806640625,8.6669921875,6.347655773162842,-21.667478561401367
-0.953857421875,-0.398193359375,-0.1251220703125,-6.896972179412842,1.7089842557907104,-25.939939498901367
-0.9749755859375,-0.303955078125,-0.060546875,-13.793944358825684,0.2441406100988388,-26.428220748901367
-0.9984130859375,-0.272705078125,-0.099853515625,-2.38037109375,3.173827886581421,-22.949216842651367
-0.9781494140625,-0.3575439453125,-0.18310546875,11.230467796325684,4.45556640625,-15.502928733825684
-0.953857421875,-0.3837890625,-0.135498046875,-1.9531248807907104,0.7324218153953552,-17.822265625
-0.96142578125,-0.2904052734375,-0.0596923828125,-8.1787109375,-0.2441406100988388,-18.6767578125
-0.972900390625,-0.2813720703125,-0.05419921875,-1.2817381620407104,2.929687261581421,-16.41845703125
-0.9534912109375,-0.3348388671875,-0.1500244140625,6.164550304412842,3.417968511581421,-14.160155296325684
-0.957275390625,-0.3687744140625,-0.1209716796875,-6.103515148162842,0.4882812201976776,-14.404295921325684
-0.9678955078125,-0.3043212890625,-0.063720703125,-12.145995140075684,-0.1831054538488388,-12.756346702575684
-0.9830322265625,-0.257080078125,-0.0606689453125,-5.615233898162842,1.8920897245407104,-7.385253429412842
-0.9771728515625,-0.3106689453125,-0.133544921875,-2.197265625,0.9155272841453552,-1.15966796875
-0.9622802734375,-0.3157958984375,-0.102783203125,-12.329100608825684,-2.13623046875,-0.54931640625
-0.984375,-0.265869140625,-0.069091796875,-13.061522483825684,-1.220703125,0.0610351525247097
-0.9920654296875,-0.3013916015625,-0.0902099609375,-5.432128429412842,0.9155272841453552,0.54931640625
-0.9781494140625,-0.2994384765625,-0.132080078125,-1.8920897245407104,0.4272460639476776,1.7700194120407104
-0.9810791015625,-0.2862548828125,-0.093017578125,-3.784179449081421,0.3662109076976776,3.112792730331421
-0.967041015625,-0.266845703125,-0.088623046875,3.234863042831421,1.0986328125,5.493163585662842
-0.9527587890625,-0.2982177734375,-0.0947265625,4.45556640625,0.6713866591453552,4.0283203125
-0.9595947265625,-0.281494140625,-0.0958251953125,6.774901866912842,1.0986328125,2.807616949081421
-0.9459228515625,-0.2877197265625,-0.103515625,9.70458984375,0.9765624403953552,3.356933355331421
-0.94384765625,-0.28662109375,-0.0982666015625,5.981444835662842,0.7324218153953552,3.112792730331421
-0.9464111328125,-0.2725830078125,-0.076416015625,7.446288585662842,0.8544921278953552,3.356933355331421
-0.94775390625,-0.2799072265625,-0.1068115234375,9.521484375,1.220703125,3.845214605331421
-0.94970703125,-0.302734375,-0.1181640625,5.676269054412842,0.30517578125,2.624511480331421
-0.9501953125,-0.2803955078125,-0.0938720703125,2.38037109375,0.0610351525247097,1.4648436307907104
-0.955078125,-0.27978515625,-0.0821533203125,2.807616949081421,0.9155272841453552,0.30517578125
-0.9508056640625,-0.2900390625,-0.10595703125,2.563476324081421,0.2441406100988388,0.2441406100988388
-0.9547119140625,-0.2965087890625,-0.1038818359375,-0.9765624403953552,-0.8544921278953552,-0.4272460639476776
-0.96240234375,-0.272705078125,-0.103759765625,-0.4882812201976776,-0.4272460639476776,-0.54931640625
-0.9566650390625,-0.291259765625,-0.0960693359375,0.9155272841453552,-0.1220703050494194,-0.54931640625
-0.95263671875,-0.285400390625,-0.089599609375,-1.2817381620407104,-0.4882812201976776,-0.6103515625
-0.9595947265625,-0.2734375,-0.0997314453125,-1.220703125,-0.6103515625,-0.3662109076976776
-0.9603271484375,-0.2843017578125,-0.109619140625,2.563476324081421,-0.2441406100988388,-0.2441406100988388
-0.9608154296875,-0.291259765625,-0.1114501953125,2.01416015625,-0.1831054538488388,-1.4648436307907104
-0.9556884765625,-0.2845458984375,-0.093505859375,0.4882812201976776,-0.1831054538488388,-2.0751953125
-0.9481201171875,-0.2802734375,-0.079833984375,0.6713866591453552,-0.4882812201976776,-1.5258787870407104
-0.949462890625,-0.2830810546875,-0.097412109375,2.3193359375,-0.1220703050494194,-1.0986328125
-0.9483642578125,-0.30078125,-0.1102294921875,1.7089842557907104,-0.30517578125,-2.25830078125
-0.9556884765625,-0.2904052734375,-0.100830078125,-1.15966796875,-0.1831054538488388,-3.540038824081421
-0.9622802734375,-0.2825927734375,-0.0948486328125,-0.54931640625,0.0,-3.845214605331421
-0.9654541015625,-0.283935546875,-0.0977783203125,1.220703125,0.3662109076976776,-4.0283203125
-0.9453125,-0.302978515625,-0.1009521484375,0.4272460639476776,-0.7934569716453552,-5.0048828125
-0.9366455078125,-0.288330078125,-0.093017578125,-1.5258787870407104,-1.3427733182907104,-4.82177734375
-2.0499267578125,-0.3516845703125,-0.31103515625,4.57763671875,-45.898433685302734,126.58690643310547
-2.077880859375,-0.6051025390625,-0.43701171875,31.188962936401367,-67.5048828125,156.25
-1.8548583984375,-0.6678466796875,-0.345947265625,-18.00537109375,-72.57080078125,149.10888671875
-1.48388671875,-0.67919921875,-0.20654296875,5.798339366912842,-63.720699310302734,141.29638671875
-1.0411376953125,-0.851806640625,-0.348876953125,13.366698265075684,-47.058101654052734,124.57274627685547
-0.7125244140625,-0.7994384765625,-0.388671875,2.0751953125,-34.912109375,94.17723846435547
-0.41748046875,-0.5850830078125,-0.1385498046875,-4.45556640625,-23.315427780151367,58.532711029052734
-0.1131591796875,-0.50537109375,-0.052490234375,5.371093273162842,-6.835937023162842,18.24951171875
0.0941162109375,-0.415283203125,-0.0985107421875,12.756346702575684,2.0751953125,-21.484373092651367
0.1611328125,-0.3968505859375,-0.04150390625,19.59228515625,7.629394054412842,-41.381832122802734
0.0733642578125,-0.37255859375,-0.0692138671875,16.29638671875,19.287109375,-41.931148529052734
0.032470703125,-0.4239501953125,-0.1328125,17.578125,29.846189498901367,-28.320310592651367
-0.0958251953125,-0.369873046875,-0.1107177734375,13.488768577575684,32.1044921875,-18.5546875
-0.2352294921875,-0.3760986328125,-0.09423828125,-4.150390625,29.663084030151367,-9.09423828125
-0.3330078125,-0.4097900390625,-0.1329345703125,-3.234863042831421,26.428220748901367,1.3427733182907104
-0.4462890625,-0.5191650390625,-0.12548828125,10.253905296325684,20.874021530151367,13.122557640075684
-0.532470703125,-0.6343994140625,-0.1597900390625,-17.27294921875,11.108397483825684,12.634276390075684
-0.660888671875,-0.6361083984375,-0.2208251953125,-4.0283203125,12.573241233825684,12.512206077575684
-0.732177734375,-0.755126953125,-0.24462890625,-2.38037109375,9.94873046875,15.686034202575684
-0.75634765625,-0.6002197265625,-0.1729736328125,-21.606443405151367,4.08935546875,15.380858421325684
-0.7559814453125,-0.6800537109375,-0.214111328125,-4.45556640625,4.7607421875,16.7236328125
-0.7757568359375,-0.7264404296875,-0.2879638671875,-9.3994140625,3.723144292831421,15.319823265075684
-0.7744140625,-0.6566162109375,-0.19970703125,-11.657713890075684,3.845214605331421,12.756346702575684
-0.7305908203125,-0.6702880859375,-0.17822265625,2.746581792831421,11.657713890075684,9.82666015625
-0.7374267578125,-0.7562255859375,-0.2764892578125,-5.0048828125,11.169432640075684,7.202147960662842
-0.7425537109375,-0.66845703125,-0.1484375,-14.709471702575684,8.97216796875,3.356933355331421
-0.6732177734375,-0.680419921875,-0.1173095703125,-2.746581792831421,11.840819358825684,3.845214605331421
-0.6922607421875,-0.7061767578125,-0.20654296875,-5.493163585662842,12.145995140075684,0.3662109076976776
-0.6646728515625,-0.70068359375,-0.179931640625,-9.94873046875,7.812499523162842,1.2817381620407104
-0.6844482421875,-0.6710205078125,-0.165283203125,-6.225585460662842,9.21630859375,-0.1220703050494194
-0.6826171875,-0.7069091796875,-0.2181396484375,-2.990722417831421,7.690429210662842,0.6713866591453552
-0.6962890625,-0.6666259765625,-0.1590576171875,-2.746581792831421,5.554198741912842,-1.4038084745407104
-0.6793212890625,-0.66015625,-0.16064453125,2.197265625,4.8828125,-2.563476324081421
-0.6900634765625,-0.665771484375,-0.112548828125,-5.920409679412842,3.601073980331421,-4.57763671875
-0.63037109375,-0.6807861328125,-0.1712646484375,-4.39453125,2.01416015625,-5.310058116912842
-0.64599609375,-0.7105712890625,-0.10595703125,-12.268065452575684,-2.624511480331421,-6.225585460662842
-0.677978515625,-0.7005615234375,-0.1173095703125,-18.12744140625,-3.417968511581421,-6.774901866912842
-0.7120361328125,-0.6966552734375,-0.14306640625,-15.136717796325684,-3.479003667831421,-7.202147960662842
-0.7315673828125,-0.698974609375,-0.1712646484375,-15.624999046325684,-3.540038824081421,-8.72802734375
-0.72802734375,-0.680419921875,-0.1484375,-12.329100608825684,-4.0283203125,-7.446288585662842
-0.73876953125,-0.6544189453125,-0.1533203125,-0.4272460639476776,-3.417968511581421,-3.540038824081421
-0.71875,-0.6673583984375,-0.142578125,4.57763671875,-3.540038824081421,-1.5869139432907104
-0.6639404296875,-0.670654296875,-0.1285400390625,6.530761241912842,-5.126952648162842,-1.9531248807907104
-0.6324462890625,-0.633056640625,-0.08203125,7.751464366912842,-7.141112804412842,-0.8544921278953552
-0.576416015625,-0.6029052734375,-0.0687255859375,6.652831554412842,-6.835937023162842,-2.0751953125
-0.4993896484375,-0.5987548828125,-0.0892333984375,12.023924827575684,-7.568358898162842,-1.4648436307907104
-0.4669189453125,-0.548583984375,-0.0931396484375,12.268065452575684,-10.681151390075684,1.8310545682907104
-0.527587890625,-0.554931640625,-0.099853515625,2.0751953125,-8.11767578125,-0.9155272841453552
-0.438232421875,-0.6295166015625,-0.1651611328125,-2.197265625,-8.48388671875,-2.746581792831421
-0.5267333984375,-0.50634765625,-0.0955810546875,-0.6103515625,-15.197752952575684,-2.01416015625
-0.5927734375,-0.53955078125,-0.054443359375,-9.033203125,-4.21142578125,-6.042479991912842
-0.47900390625,-0.6134033203125,-0.260986328125,19.47021484375,-2.13623046875,-7.812499523162842
-0.6568603515625,-0.6507568359375,-0.208740234375,8.85009765625,-8.48388671875,-12.207030296325684
-0.6968994140625,-0.68994140625,-0.1087646484375,-5.493163585662842,3.845214605331421,-23.071287155151367
-0.5994873046875,-0.6209716796875,-0.40576171875,30.334470748901367,0.6713866591453552,-12.817381858825684
-0.880859375,-0.7698974609375,-0.1920166015625,-10.375975608825684,-2.868652105331421,-20.812986373901367
-0.722412109375,-0.728759765625,-0.203369140625,-0.3662109076976776,3.845214605331421,-23.193357467651367
-0.8267822265625,-0.5650634765625,-0.2779541015625,17.63916015625,2.563476324081421,-22.094724655151367
-0.9544677734375,-0.7869873046875,-0.2119140625,-0.6713866591453552,8.97216796875,-29.724119186401367
-0.7755126953125,-0.6885986328125,-0.345947265625,14.221190452575684,4.57763671875,-27.648923873901367
-0.8753662109375,-0.5726318359375,-0.1834716796875,4.5166015625,-4.21142578125,-25.634763717651367
-0.9627685546875,-0.6201171875,-0.094482421875,-7.019042491912842,4.8828125,-31.066892623901367
-0.82470703125,-0.6304931640625,-0.30322265625,20.446775436401367,9.70458984375,-28.930662155151367
-0.8319091796875,-0.6507568359375,-0.2901611328125,2.0751953125,0.4272460639476776,-27.587888717651367
-0.9625244140625,-0.572509765625,-0.1510009765625,-22.155759811401367,1.220703125,-30.212400436401367
-0.85986328125,-0.548095703125,-0.16259765625,-4.638671875,4.82177734375,-26.000974655151367
-0.8446044921875,-0.5499267578125,-0.1868896484375,-10.437010765075684,4.82177734375,-27.770994186401367
-0.8988037109375,-0.6143798828125,-0.241455078125,-42.724605560302734,0.7324218153953552,-29.235837936401367
-0.888671875,-0.4957275390625,-0.212890625,-56.762691497802734,-0.7934569716453552,-35.46142578125
-0.856201171875,-0.5137939453125,-0.1204833984375,-43.273921966552734,4.69970703125,-33.935546875
-0.8992919921875,-0.5072021484375,-0.1622314453125,-54.870601654052734,5.737304210662842,-35.46142578125
-0.9151611328125,-0.4620361328125,-0.17626953125,-54.504390716552734,1.5869139432907104,-38.51318359375
-0.8955078125,-0.4371337890625,-0.0875244140625,-42.602535247802734,-0.4272460639476776,-38.818359375
-0.94921875,-0.41796875,-0.0888671875,-35.888671875,-2.01416015625,-37.41455078125
-1.0389404296875,-0.4459228515625,-0.16162109375,-27.770994186401367,-5.676269054412842,-33.87451171875
-0.9979248046875,-0.3665771484375,-0.1502685546875,-20.812986373901367,-9.33837890625,-30.151365280151367
-0.9989013671875,-0.3399658203125,-0.0609130859375,-19.1650390625,-8.6669921875,-28.015134811401367
-0.98193359375,-0.34033203125,-0.11083984375,-5.493163585662842,-1.8310545682907104,-26.000974655151367
-0.940185546875,-0.394287109375,-0.17626953125,9.21630859375,1.2817381620407104,-25.024412155151367
-0.94384765625,-0.3935546875,-0.1690673828125,5.554198741912842,-0.30517578125,-28.930662155151367
-0.9759521484375,-0.3433837890625,-0.0919189453125,3.295898199081421,-1.5869139432907104,-31.677244186401367
-0.9818115234375,-0.281982421875,-0.0693359375,18.37158203125,0.9155272841453552,-27.526853561401367
-0.955078125,-0.30908203125,-0.1324462890625,29.541013717651367,2.3193359375,-24.414060592651367
-0.966796875,-0.3572998046875,-0.112548828125,20.385740280151367,0.1831054538488388,-25.939939498901367
-1.007568359375,-0.271728515625,-0.0584716796875,21.545408248901367,2.25830078125,-24.536130905151367
-0.9716796875,-0.2811279296875,-0.1212158203125,32.2265625,3.723144292831421,-18.1884765625
-1.0028076171875,-0.333984375,-0.122802734375,23.498533248901367,2.50244140625,-16.29638671875
-1.023681640625,-0.3017578125,-0.0809326171875,14.404295921325684,1.2817381620407104,-13.305663108825684
-1.0269775390625,-0.2484130859375,-0.0694580078125,20.141599655151367,4.39453125,-5.493163585662842
-0.9869384765625,-0.3052978515625,-0.13916015625,16.7236328125,3.967284917831421,-1.03759765625
-1.0028076171875,-0.32958984375,-0.1224365234375,0.7934569716453552,1.4648436307907104,-1.15966796875
-1.00390625,-0.25830078125,-0.0682373046875,0.1831054538488388,1.9531248807907104,0.9765624403953552
-0.98291015625,-0.2589111328125,-0.0992431640625,5.493163585662842,5.249022960662842,3.845214605331421
-0.9627685546875,-0.3177490234375,-0.139404296875,-1.03759765625,2.868652105331421,2.44140625
-0.9840087890625,-0.278076171875,-0.099853515625,-7.202147960662842,1.15966796875,2.624511480331421
-0.971923828125,-0.254638671875,-0.0933837890625,-1.0986328125,2.685546636581421,4.7607421875
-0.9599609375,-0.2918701171875,-0.1226806640625,1.3427733182907104,2.3193359375,4.08935546875
-0.9639892578125,-0.281982421875,-0.1229248046875,-4.150390625,0.8544921278953552,2.929687261581421
-0.961181640625,-0.253662109375,-0.09326171875,-0.7934569716453552,0.7934569716453552,3.112792730331421
-0.9385986328125,-0.27197265625,-0.115234375,0.9765624403953552,0.9155272841453552,3.173827886581421
-0.941162109375,-0.28369140625,-0.1153564453125,-3.906249761581421,0.0,1.0986328125
-0.9383544921875,-0.262451171875,-0.101318359375,-4.39453125,-0.7324218153953552,0.9155272841453552
-0.9434814453125,-0.255126953125,-0.1014404296875,-1.8310545682907104,0.0,0.9765624403953552
-0.945068359375,-0.282470703125,-0.125732421875,-1.4038084745407104,0.1831054538488388,0.7324218153953552
-0.95263671875,-0.291748046875,-0.11474609375,-3.601073980331421,-0.1831054538488388,-0.7324218153953552
-0.9649658203125,-0.2733154296875,-0.0980224609375,-3.234863042831421,-0.3662109076976776,-0.7934569716453552
-0.972412109375,-0.26416015625,-0.101806640625,-0.7934569716453552,0.1831054538488388,-0.2441406100988388
-0.97119140625,-0.2789306640625,-0.12060546875,1.8920897245407104,0.30517578125,0.9155272841453552
-0.97119140625,-0.2926025390625,-0.110595703125,-0.7324218153953552,-1.03759765625,0.8544921278953552
-0.976318359375,-0.2734375,-0.098876953125,-1.7700194120407104,-1.15966796875,0.1220703050494194
-0.9669189453125,-0.2706298828125,-0.10205078125,3.784179449081421,-0.30517578125,1.4648436307907104
-0.9530029296875,-0.2757568359375,-0.1182861328125,2.50244140625,-0.54931640625,1.7089842557907104
-0.9451904296875,-0.2806396484375,-0.1048583984375,-2.0751953125,-0.6103515625,1.3427733182907104
-0.94140625,-0.2769775390625,-0.1009521484375,-1.7089842557907104,-0.6103515625,0.6713866591453552
-0.94189453125,-0.2808837890625,-0.10205078125,-0.7934569716453552,-0.1220703050494194,-0.0610351525247097
-0.9471435546875,-0.2774658203125,-0.108642578125,-1.15966796875,0.1831054538488388,-0.30517578125
-0.9547119140625,-0.2877197265625,-0.1123046875,-2.13623046875,0.4272460639476776,-0.54931640625
-0.959716796875,-0.288818359375,-0.1085205078125,-2.38037109375,0.54931640625,-0.8544921278953552
-0.96044921875,-0.281005859375,-0.1005859375,-1.4648436307907104,0.6103515625,-0.9765624403953552
-1.9632568359375,-0.4290771484375,-0.3792724609375,7.507323741912842,-31.616209030151367,130.55419921875
-2.1524658203125,-0.5889892578125,-0.4005126953125,12.023924827575684,-43.090816497802734,161.56004333496094
-1.8216552734375,-0.69873046875,-0.276611328125,15.441893577575684,-46.874996185302734,176.39158630371094
-1.3009033203125,-0.6380615234375,-0.182373046875,-7.690429210662842,-42.175289154052734,155.45654296875
-0.7801513671875,-0.707275390625,-0.1995849609375,0.7324218153953552,-30.090330123901367,130.67626953125
-0.550537109375,-0.867919921875,-0.2294921875,11.779784202575684,-22.277830123901367,107.23876190185547
-0.39892578125,-0.5816650390625,-0.1697998046875,9.033203125,-18.1884765625,85.51024627685547
-0.185791015625,-0.5833740234375,-0.089599609375,25.573728561401367,-7.690429210662842,60.119625091552734
-0.0299072265625,-0.46923828125,-0.1622314453125,20.324705123901367,-3.601073980331421,28.198240280151367
-0.0032958984375,-0.45703125,-0.0782470703125,39.12353515625,-3.967284917831421,3.112792730331421
-0.002685546875,-0.4178466796875,-0.0374755859375,48.461910247802734,-2.197265625,-9.82666015625
0.0308837890625,-0.3834228515625,-0.177734375,20.935056686401367,-0.30517578125,-7.324218273162842
-0.03955078125,-0.3414306640625,-0.131103515625,18.85986328125,2.685546636581421,-2.990722417831421
-0.2001953125,-0.3177490234375,-0.03662109375,31.799314498901367,10.009765625,2.197265625
-0.32958984375,-0.396728515625,-0.1961669921875,3.723144292831421,10.803221702575684,3.967284917831421
-0.37939453125,-0.5535888671875,-0.1961669921875,-4.7607421875,9.58251953125,4.94384765625
-0.471923828125,-0.60791015625,-0.196533203125,-10.498045921325684,5.187987804412842,7.507323741912842
-0.55029296875,-0.6798095703125,-0.25244140625,-20.874021530151367,5.432128429412842,1.8920897245407104
-0.635986328125,-0.71923828125,-0.17578125,-11.596678733825684,5.737304210662842,-0.7934569716453552
-0.647705078125,-0.7537841796875,-0.27978515625,-16.11328125,3.295898199081421,-3.662109136581421
-0.644775390625,-0.777587890625,-0.2698974609375,-9.521484375,2.0751953125,-7.080077648162842
-0.678955078125,-0.769287109375,-0.2271728515625,2.929687261581421,2.563476324081421,-7.141112804412842
-0.63818359375,-0.78369140625,-0.2545166015625,-1.5258787870407104,1.9531248807907104,-5.249022960662842
-0.655029296875,-0.763916015625,-0.213623046875,-8.48388671875,5.126952648162842,-5.493163585662842
-0.6231689453125,-0.755126953125,-0.2962646484375,-2.38037109375,8.6669921875,-1.220703125
-0.6317138671875,-0.7391357421875,-0.2222900390625,-10.131834983825684,9.3994140625,0.1831054538488388
-0.6229248046875,-0.7362060546875,-0.2547607421875,-11.169432640075684,9.521484375,2.929687261581421
-0.6190185546875,-0.710205078125,-0.23583984375,-9.70458984375,7.751464366912842,4.08935546875
-0.609619140625,-0.7276611328125,-0.2742919921875,-8.97216796875,6.103515148162842,3.295898199081421
-0.5994873046875,-0.6861572265625,-0.189697265625,-10.131834983825684,2.13623046875,1.4038084745407104
-0.59423828125,-0.656494140625,-0.193359375,-6.958007335662842,3.784179449081421,-1.5869139432907104
-0.58935546875,-0.7325439453125,-0.223388671875,-11.779784202575684,0.4882812201976776,-2.746581792831421
-0.61865234375,-0.7054443359375,-0.1641845703125,-15.258788108825684,0.7324218153953552,-5.249022960662842
-0.6337890625,-0.7281494140625,-0.2532958984375,-10.498045921325684,0.8544921278953552,-3.417968511581421
-0.6646728515625,-0.7591552734375,-0.218994140625,-19.775390625,-1.5869139432907104,-5.0048828125
-0.6783447265625,-0.72900390625,-0.1832275390625,-14.831542015075684,-2.01416015625,-4.33349609375
-0.7000732421875,-0.7637939453125,-0.25146484375,-5.920409679412842,-0.3662109076976776,-5.310058116912842
-0.6815185546875,-0.7781982421875,-0.24267578125,-6.469726085662842,-1.6479490995407104,-5.0048828125
-0.68603515625,-0.7489013671875,-0.201171875,-2.868652105331421,-2.38037109375,-5.310058116912842
-0.6568603515625,-0.73974609375,-0.1925048828125,4.150390625,-0.8544921278953552,-5.554198741912842
-0.6258544921875,-0.7288818359375,-0.2098388671875,2.563476324081421,-1.7089842557907104,-5.371093273162842
-0.5960693359375,-0.70654296875,-0.1578369140625,-2.197265625,-2.929687261581421,-4.45556640625
-0.56982421875,-0.6666259765625,-0.13427734375,-1.4038084745407104,-0.7934569716453552,-3.845214605331421
-0.5272216796875,-0.6602783203125,-0.1484375,-3.540038824081421,2.01416015625,-2.01416015625
-0.5029296875,-0.6378173828125,-0.153076171875,-11.413573265075684,1.220703125,0.4272460639476776
-0.484130859375,-0.6295166015625,-0.1070556640625,-12.268065452575684,0.30517578125,1.5258787870407104
-0.4620361328125,-0.6414794921875,-0.13818359375,-11.962889671325684,-2.01416015625,4.94384765625
-0.5032958984375,-0.6851806640625,-0.156982421875,-17.7001953125,-0.8544921278953552,2.50244140625
-0.4552001953125,-0.651123046875,-0.1961669921875,-10.192870140075684,-3.051757574081421,4.08935546875
-0.55810546875,-0.6519775390625,-0.088134765625,-2.685546636581421,-2.990722417831421,4.08935546875
-0.5328369140625,-0.709228515625,-0.2421875,-5.0048828125,-0.9765624403953552,-5.371093273162842
-0.4876708984375,-0.7552490234375,-0.2138671875,-1.15966796875,-8.544921875,-1.5258787870407104
-0.6680908203125,-0.645751953125,-0.0606689453125,0.6103515625,-4.39453125,-10.253905296325684
-0.5797119140625,-0.77783203125,-0.267822265625,20.629880905151367,2.807616949081421,-14.099120140075684
-0.590576171875,-0.8193359375,-0.3306884765625,-12.268065452575684,-6.530761241912842,-11.535643577575684
-0.7501220703125,-0.66943359375,-0.1177978515625,-4.7607421875,0.9155272841453552,-18.61572265625
-0.5848388671875,-0.7694091796875,-0.2099609375,9.765625,0.8544921278953552,-13.061522483825684
-0.71142578125,-0.7330322265625,-0.1646728515625,-20.080564498901367,-3.906249761581421,-19.1650390625
-0.804931640625,-0.6846923828125,-0.141357421875,13.732909202575684,9.033203125,-24.597166061401367
-0.7091064453125,-0.8536376953125,-0.331787109375,17.333984375,7.141112804412842,-16.9677734375
-0.7586669921875,-0.7261962890625,-0.2681884765625,-27.526853561401367,-5.371093273162842,-24.780271530151367
-0.90478515625,-0.6197509765625,-0.0858154296875,-6.164550304412842,0.0,-24.047849655151367
-0.7760009765625,-0.763916015625,-0.143798828125,17.15087890625,4.150390625,-23.376462936401367
-0.78662109375,-0.724609375,-0.1767578125,-2.38037109375,0.2441406100988388,-23.315427780151367
-0.83056640625,-0.679931640625,-0.1124267578125,-5.065917491912842,0.0610351525247097,-20.690916061401367
-0.7723388671875,-0.68359375,-0.1187744140625,6.591796398162842,5.0048828125,-20.01953125
-0.75537109375,-0.635498046875,-0.2042236328125,-3.784179449081421,7.507323741912842,-23.864744186401367
-0.779541015625,-0.6988525390625,-0.2218017578125,-4.0283203125,6.164550304412842,-25.878904342651367
-0.8416748046875,-0.6636962890625,-0.21142578125,-6.042479991912842,2.197265625,-28.259275436401367
-0.8106689453125,-0.5631103515625,-0.1064453125,-11.962889671325684,2.38037109375,-29.052732467651367
-0.7767333984375,-0.568603515625,-0.1346435546875,-0.6103515625,3.479003667831421,-28.442380905151367
-0.8380126953125,-0.638671875,-0.242919921875,-6.408690929412842,-0.4882812201976776,-30.944822311401367
-0.833740234375,-0.5595703125,-0.171875,-12.329100608825684,-1.8920897245407104,-34.24072265625
-0.85400390625,-0.5302734375,-0.0897216796875,2.746581792831421,4.08935546875,-33.203125
-0.82470703125,-0.548828125,-0.2276611328125,-0.6713866591453552,6.103515148162842,-34.912109375
-0.8289794921875,-0.549560546875,-0.2578125,-3.845214605331421,2.990722417831421,-39.97802734375
-0.8564453125,-0.5264892578125,-0.14501953125,-4.82177734375,3.417968511581421,-43.457027435302734
-0.930908203125,-0.458251953125,-0.1181640625,4.82177734375,7.751464366912842,-44.006343841552734
-0.92578125,-0.4893798828125,-0.1923828125,18.310546875,10.070799827575684,-41.259761810302734
-0.9110107421875,-0.463623046875,-0.1905517578125,18.00537109375,6.591796398162842,-42.419429779052734
-0.927978515625,-0.438720703125,-0.1160888671875,7.141112804412842,4.21142578125,-43.640132904052734
-0.95068359375,-0.3809814453125,-0.1015625,11.352538108825684,6.347655773162842,-45.532222747802734
-0.962646484375,-0.365966796875,-0.156494140625,24.169919967651367,8.72802734375,-46.386714935302734
-0.958251953125,-0.3905029296875,-0.212158203125,15.319823265075684,7.202147960662842,-48.400875091552734
-0.9840087890625,-0.4127197265625,-0.142578125,-10.986327171325684,4.45556640625,-49.926753997802734
-1.009521484375,-0.3199462890625,-0.1695556640625,-10.559081077575684,2.990722417831421,-42.968746185302734
-1.0594482421875,-0.3790283203125,-0.1431884765625,-19.1650390625,-1.4648436307907104,-33.63037109375
-1.0733642578125,-0.2330322265625,-0.1048583984375,-27.832029342651367,-3.662109136581421,-28.259275436401367
-1.0245361328125,-0.2388916015625,-0.0960693359375,-23.864744186401367,-1.5869139432907104,-16.90673828125
-1.0283203125,-0.306884765625,-0.1285400390625,-23.559568405151367,-2.50244140625,-9.521484375
-1.01611328125,-0.306396484375,-0.1240234375,-25.878904342651367,-3.784179449081421,-7.080077648162842
-1.005859375,-0.2569580078125,-0.1279296875,-15.380858421325684,-1.7700194120407104,-4.82177734375
-0.9730224609375,-0.291259765625,-0.1507568359375,-8.9111328125,-1.2817381620407104,-2.685546636581421
-0.9549560546875,-0.3077392578125,-0.128662109375,-6.225585460662842,-1.7700194120407104,-2.685546636581421
-0.9384765625,-0.275390625,-0.1038818359375,-0.9765624403953552,-1.3427733182907104,-2.44140625
-0.9339599609375,-0.283935546875,-0.113037109375,6.835937023162842,0.8544921278953552,-2.25830078125
-0.9327392578125,-0.28369140625,-0.14404296875,12.512206077575684,2.746581792831421,-1.9531248807907104
-0.9395751953125,-0.3011474609375,-0.148681640625,11.901854515075684,2.197265625,-2.0751953125
-0.94482421875,-0.275390625,-0.112548828125,10.803221702575684,2.685546636581421,-1.8310545682907104
-0.9412841796875,-0.2850341796875,-0.1016845703125,12.145995140075684,2.38037109375,-0.54931640625
-0.9449462890625,-0.2802734375,-0.11865234375,10.314940452575684,1.4648436307907104,-0.7934569716453552
-0.9547119140625,-0.2857666015625,-0.130615234375,6.469726085662842,1.15966796875,-0.30517578125
-0.9593505859375,-0.2945556640625,-0.1353759765625,2.624511480331421,1.220703125,-0.4882812201976776
-0.95166015625,-0.283935546875,-0.1300048828125,1.2817381620407104,0.7324218153953552,0.0610351525247097
-0.9559326171875,-0.2725830078125,-0.1080322265625,-0.4882812201976776,0.3662109076976776,0.4272460639476776
-0.9600830078125,-0.2745361328125,-0.1239013671875,-0.1220703050494194,0.4882812201976776,1.5869139432907104
-0.9534912109375,-0.2913818359375,-0.130126953125,-1.220703125,0.0,2.01416015625
-0.955810546875,-0.2703857421875,-0.129638671875,-3.906249761581421,0.1220703050494194,1.2817381620407104
-0.956787109375,-0.27392578125,-0.1083984375,-2.0751953125,0.6103515625,1.4038084745407104
-0.9554443359375,-0.2672119140625,-0.134765625,3.173827886581421,1.2817381620407104,2.3193359375
-0.953369140625,-0.2822265625,-0.133056640625,1.220703125,0.7934569716453552,1.7700194120407104
-0.9576416015625,-0.27294921875,-0.11376953125,0.1220703050494194,1.03759765625,1.5869139432907104
-0.9517822265625,-0.273193359375,-0.1153564453125,1.8920897245407104,0.9765624403953552,1.5869139432907104
-0.95751953125,-0.278564453125,-0.117919921875,0.0610351525247097,0.7934569716453552,0.8544921278953552
-0.9512939453125,-0.27978515625,-0.1220703125,-0.9765624403953552,0.6103515625,0.6713866591453552
-0.954345703125,-0.2669677734375,-0.1304931640625,-0.1220703050494194,0.4882812201976776,1.0986328125
-0.9576416015625,-0.2845458984375,-0.132568359375,-1.7700194120407104,0.54931640625,0.8544921278953552
-0.95556640625,-0.2777099609375,-0.1148681640625,-2.0751953125,0.6103515625,0.30517578125
-0.95263671875,-0.2716064453125,-0.116455078125,0.0,0.7934569716453552,0.1220703050494194
-1.805908203125,-0.5428466796875,-0.3580322265625,19.95849609375,-29.296873092651367,138.3056640625
-1.8160400390625,-0.65625,-0.3851318359375,16.6015625,-38.330078125,153.1982421875
-1.5738525390625,-0.7169189453125,-0.3194580078125,9.33837890625,-41.748043060302734,155.517578125
-1.2491455078125,-0.7403564453125,-0.270751953125,6.225585460662842,-35.09521484375,140.44189453125
-0.8277587890625,-0.785888671875,-0.2166748046875,-3.601073980331421,-26.733396530151367,118.10301971435547
-0.543701171875,-0.6827392578125,-0.161865234375,-4.82177734375,-22.521970748901367,86.66991424560547
-0.27734375,-0.622314453125,-0.1798095703125,-3.051757574081421,-20.141599655151367,57.861324310302734
-0.1632080078125,-0.5594482421875,-0.0809326171875,0.3662109076976776,-15.502928733825684,19.4091796875
-0.08837890625,-0.39697265625,-0.03759765625,-10.803221702575684,-11.474608421325684,-9.33837890625
-0.0018310546875,-0.445556640625,-0.00830078125,-13.488768577575684,-2.746581792831421,-26.550291061401367
-0.0401611328125,-0.3631591796875,-0.0799560546875,-1.5869139432907104,5.126952648162842,-28.198240280151367
-0.109375,-0.3349609375,-0.1376953125,2.3193359375,11.596678733825684,-25.512693405151367
-0.15869140625,-0.453857421875,-0.072998046875,-20.935056686401367,16.845703125,-23.498533248901367
-0.2855224609375,-0.4193115234375,-0.1009521484375,10.559081077575684,20.751951217651367,-12.268065452575684
-0.4315185546875,-0.531982421875,-0.2459716796875,-3.112792730331421,14.587401390075684,-7.507323741912842
-0.5123291015625,-0.569580078125,-0.1878662109375,-27.282712936401367,8.4228515625,-7.324218273162842
-0.5260009765625,-0.57568359375,-0.040283203125,-22.827146530151367,8.97216796875,-4.45556640625
-0.6409912109375,-0.62109375,-0.2213134765625,-3.417968511581421,15.747069358825684,-1.7700194120407104
-0.6766357421875,-0.74365234375,-0.2041015625,-6.896972179412842,13.000487327575684,0.4272460639476776
-0.711669921875,-0.68310546875,-0.1624755859375,-9.82666015625,12.390135765075684,-0.7934569716453552
-0.7225341796875,-0.75732421875,-0.1500244140625,-7.629394054412842,6.896972179412842,0.2441406100988388
-0.763671875,-0.7132568359375,-0.1162109375,-15.930174827575684,0.7324218153953552,-0.2441406100988388
-0.714111328125,-0.7415771484375,-0.125,-4.08935546875,-0.3662109076976776,0.8544921278953552
-0.74755859375,-0.704345703125,-0.18408203125,1.2817381620407104,-0.9155272841453552,0.9765624403953552
-0.7177734375,-0.715576171875,-0.1844482421875,0.8544921278953552,-0.6713866591453552,0.9155272841453552
-0.6783447265625,-0.6845703125,-0.120361328125,0.9765624403953552,0.54931640625,1.7089842557907104
-0.698974609375,-0.696533203125,-0.183349609375,4.08935546875,4.45556640625,-0.1220703050494194
-0.696044921875,-0.700439453125,-0.17431640625,-2.3193359375,2.868652105331421,0.7934569716453552
-0.6824951171875,-0.6632080078125,-0.1593017578125,-1.5869139432907104,3.723144292831421,-0.6103515625
-0.6905517578125,-0.6993408203125,-0.1346435546875,-0.6713866591453552,2.685546636581421,-1.3427733182907104
-0.7138671875,-0.685791015625,-0.166748046875,-2.13623046875,-0.2441406100988388,-1.5869139432907104
-0.6888427734375,-0.6826171875,-0.155029296875,-3.417968511581421,-1.6479490995407104,-2.746581792831421
-0.715087890625,-0.6912841796875,-0.1531982421875,-3.051757574081421,-1.9531248807907104,-2.44140625
-0.7203369140625,-0.70458984375,-0.1827392578125,-2.3193359375,-1.5869139432907104,-2.25830078125
-0.7314453125,-0.70068359375,-0.165771484375,-5.310058116912842,-0.4882812201976776,-2.929687261581421
-0.71240234375,-0.710693359375,-0.1619873046875,-1.3427733182907104,2.0751953125,-2.929687261581421
-0.72412109375,-0.696044921875,-0.1400146484375,-0.4882812201976776,2.746581792831421,-2.01416015625
-0.7012939453125,-0.698486328125,-0.1754150390625,0.3662109076976776,2.624511480331421,-1.4648436307907104
-0.691162109375,-0.6622314453125,-0.1162109375,-1.03759765625,0.8544921278953552,0.30517578125
-0.6705322265625,-0.621826171875,-0.14453125,1.03759765625,3.417968511581421,-0.7324218153953552
-0.633544921875,-0.6536865234375,-0.16259765625,-0.1220703050494194,3.479003667831421,-2.38037109375
-0.6669921875,-0.6236572265625,-0.12744140625,-2.3193359375,3.784179449081421,-5.126952648162842
-0.630615234375,-0.609130859375,-0.1357421875,-1.03759765625,2.01416015625,-5.0048828125
-0.6265869140625,-0.62548828125,-0.138427734375,-1.8310545682907104,-1.15966796875,-6.652831554412842
-0.6370849609375,-0.6527099609375,-0.1163330078125,1.03759765625,-1.8920897245407104,-6.591796398162842
-0.6270751953125,-0.6298828125,-0.139892578125,4.08935546875,-2.197265625,-6.164550304412842
-0.622314453125,-0.6470947265625,-0.146484375,0.2441406100988388,-2.3193359375,-6.530761241912842
-0.6212158203125,-0.6199951171875,-0.142822265625,-1.2817381620407104,-3.845214605331421,-3.479003667831421
-0.653076171875,-0.689697265625,-0.0887451171875,-4.2724609375,-3.784179449081421,-3.234863042831421
-0.594482421875,-0.6387939453125,-0.1368408203125,-0.1220703050494194,-5.737304210662842,-1.0986328125
-0.6212158203125,-0.6048583984375,-0.119384765625,-2.868652105331421,-6.835937023162842,-0.0610351525247097
-0.6263427734375,-0.695556640625,-0.1365966796875,-3.051757574081421,-4.7607421875,-0.6713866591453552
-0.5577392578125,-0.6806640625,-0.180419921875,-2.807616949081421,-8.30078125,5.737304210662842
-0.73876953125,-0.5823974609375,-0.067138671875,-9.765625,-2.685546636581421,-1.8920897245407104
-0.5821533203125,-0.7442626953125,-0.21435546875,-1.5258787870407104,-0.8544921278953552,-4.2724609375
-0.598388671875,-0.68359375,-0.2032470703125,-2.563476324081421,-10.375975608825684,3.234863042831421
-0.7750244140625,-0.53955078125,-0.071044921875,-9.46044921875,-4.638671875,-5.798339366912842
-0.5467529296875,-0.753662109375,-0.1895751953125,12.023924827575684,-1.5869139432907104,-1.4038084745407104
-0.6591796875,-0.6448974609375,-0.1871337890625,0.3662109076976776,-6.164550304412842,-4.82177734375
-0.7049560546875,-0.6334228515625,-0.1324462890625,1.03759765625,1.5258787870407104,-13.488768577575684
-0.5498046875,-0.7025146484375,-0.2105712890625,20.996091842651367,2.25830078125,-10.803221702575684
-0.816650390625,-0.6065673828125,-0.1629638671875,0.9155272841453552,3.601073980331421,-20.263669967651367
-0.7520751953125,-0.6800537109375,-0.202880859375,10.375975608825684,7.629394054412842,-23.498533248901367
-0.691162109375,-0.6885986328125,-0.19921875,29.663084030151367,5.615233898162842,-17.7001953125
-0.9344482421875,-0.57958984375,-0.167724609375,14.343260765075684,6.958007335662842,-25.878904342651367
-0.7645263671875,-0.6766357421875,-0.219482421875,15.686034202575684,7.568358898162842,-25.024412155151367
-0.77783203125,-0.64697265625,-0.137451171875,36.1328125,6.042479991912842,-26.672361373901367
-0.9200439453125,-0.6051025390625,-0.2349853515625,10.253905296325684,4.7607421875,-30.761716842651367
-0.8311767578125,-0.6268310546875,-0.2276611328125,9.58251953125,4.21142578125,-32.958984375
-0.83740234375,-0.6051025390625,-0.154296875,31.066892623901367,6.774901866912842,-32.2265625
-0.9970703125,-0.5838623046875,-0.2437744140625,13.366698265075684,6.652831554412842,-30.761716842651367
-0.923583984375,-0.5335693359375,-0.228759765625,7.141112804412842,4.45556640625,-31.799314498901367
-0.8787841796875,-0.52099609375,-0.122314453125,29.357908248901367,8.97216796875,-28.564451217651367
-0.897705078125,-0.556884765625,-0.26904296875,30.212400436401367,9.27734375,-26.916501998901367
-0.9078369140625,-0.5703125,-0.2662353515625,6.286620616912842,5.554198741912842,-29.602048873901367
-0.893798828125,-0.4786376953125,-0.141357421875,4.7607421875,4.82177734375,-29.724119186401367
-0.95703125,-0.4912109375,-0.18603515625,17.88330078125,11.901854515075684,-24.902341842651367
-0.9581298828125,-0.50244140625,-0.286865234375,5.310058116912842,10.803221702575684,-21.423337936401367
-0.9195556640625,-0.4815673828125,-0.2373046875,-0.0610351525247097,6.591796398162842,-21.362302780151367
-0.9351806640625,-0.4200439453125,-0.1177978515625,5.065917491912842,9.21630859375,-18.5546875
-0.9444580078125,-0.4383544921875,-0.20654296875,3.417968511581421,10.986327171325684,-16.6015625
-0.925048828125,-0.451416015625,-0.268310546875,2.868652105331421,7.995604991912842,-17.02880859375
-0.929443359375,-0.4248046875,-0.1962890625,-1.2817381620407104,4.7607421875,-13.977049827575684
-0.9290771484375,-0.3895263671875,-0.1414794921875,-4.45556640625,5.554198741912842,-16.11328125
-0.9298095703125,-0.4007568359375,-0.1966552734375,4.57763671875,7.446288585662842,-14.770506858825684
-0.921142578125,-0.4110107421875,-0.22607421875,2.44140625,3.662109136581421,-18.12744140625
-0.9295654296875,-0.3614501953125,-0.1611328125,-10.070799827575684,2.3193359375,-19.47021484375
-0.9068603515625,-0.3306884765625,-0.157470703125,-9.1552734375,5.676269054412842,-17.63916015625
-0.9124755859375,-0.3681640625,-0.1842041015625,-10.009765625,6.164550304412842,-22.399900436401367
-0.9107666015625,-0.3702392578125,-0.1639404296875,-18.06640625,4.150390625,-23.559568405151367
-0.91259765625,-0.33447265625,-0.118408203125,-31.372068405151367,4.8828125,-28.991697311401367
-0.9405517578125,-0.306640625,-0.158935546875,-25.878904342651367,7.568358898162842,-30.944822311401367
-0.957275390625,-0.3717041015625,-0.1688232421875,-26.733396530151367,5.859374523162842,-29.846189498901367
-0.9805908203125,-0.3388671875,-0.14697265625,-35.2783203125,2.44140625,-26.245115280151367
-0.998291015625,-0.3031005859375,-0.1192626953125,-31.860349655151367,0.30517578125,-18.49365234375
-1.0162353515625,-0.3026123046875,-0.1077880859375,-26.062009811401367,-1.03759765625,-9.46044921875
-1.0269775390625,-0.2930908203125,-0.131591796875,-23.925779342651367,-2.0751953125,-4.39453125
-1.0137939453125,-0.254638671875,-0.10888671875,-19.47021484375,-0.4882812201976776,-4.82177734375
-0.9869384765625,-0.2542724609375,-0.1519775390625,-11.962889671325684,-0.0610351525247097,-3.479003667831421
-0.9849853515625,-0.31591796875,-0.16015625,-5.676269054412842,0.4272460639476776,-3.845214605331421
-0.99755859375,-0.29931640625,-0.1585693359375,-5.859374523162842,1.5258787870407104,-4.39453125
-0.967529296875,-0.292724609375,-0.1483154296875,4.45556640625,0.9155272841453552,-4.0283203125
-0.9783935546875,-0.2869873046875,-0.100830078125,5.493163585662842,0.3662109076976776,-2.38037109375
-0.97705078125,-0.2696533203125,-0.0980224609375,11.596678733825684,2.01416015625,-0.7934569716453552
-0.9598388671875,-0.27587890625,-0.1439208984375,20.935056686401367,2.25830078125,0.3662109076976776
-0.9539794921875,-0.3289794921875,-0.14306640625,17.27294921875,1.03759765625,-0.6103515625
-0.9420166015625,-0.302734375,-0.12109375,13.732909202575684,0.0610351525247097,-1.7089842557907104
-0.9351806640625,-0.2982177734375,-0.093994140625,13.977049827575684,0.7934569716453552,-1.5869139432907104
-0.933837890625,-0.2889404296875,-0.130126953125,15.258788108825684,0.7934569716453552,-1.3427733182907104
-0.9361572265625,-0.31689453125,-0.1378173828125,10.253905296325684,-0.1220703050494194,-1.5258787870407104
-0.935302734375,-0.292236328125,-0.1234130859375,4.7607421875,-0.7934569716453552,-1.220703125
-0.9400634765625,-0.27783203125,-0.1126708984375,2.563476324081421,0.0610351525247097,-0.4272460639476776
-0.9462890625,-0.2982177734375,-0.1328125,2.624511480331421,0.0610351525247097,0.0
-0.9593505859375,-0.306396484375,-0.1234130859375,-1.8310545682907104,-0.7934569716453552,-0.7324218153953552
-0.967041015625,-0.2869873046875,-0.111083984375,-2.25830078125,-0.9155272841453552,-0.7934569716453552
-0.9647216796875,-0.289794921875,-0.122802734375,0.7934569716453552,-0.54931640625,-0.4272460639476776
-0.9610595703125,-0.307861328125,-0.1282958984375,-1.4038084745407104,-0.9765624403953552,-0.9155272841453552
-0.959716796875,-0.285400390625,-0.111083984375,-2.25830078125,-0.2441406100988388,-1.0986328125
-0.9505615234375,-0.2879638671875,-0.1173095703125,0.6103515625,0.0,0.0
-1.8326416015625,-0.4720458984375,-0.3466796875,-3.906249761581421,-36.31591796875,123.10790252685547
-1.8348388671875,-0.574462890625,-0.413818359375,-4.45556640625,-40.466304779052734,139.46533203125
-1.5350341796875,-0.6883544921875,-0.33740234375,-33.447265625,-41.809078216552734,140.869140625
-1.13623046875,-0.659912109375,-0.145751953125,-29.663084030151367,-26.000974655151367,128.35693359375
-0.8431396484375,-0.71630859375,-0.13134765625,-13.183592796325684,-10.986327171325684,105.77391815185547
-0.5823974609375,-0.7593994140625,-0.1619873046875,0.9155272841453552,-4.0283203125,81.29882049560547
-0.337158203125,-0.5137939453125,-0.1748046875,-4.7607421875,-3.967284917831421,45.227046966552734
-0.220458984375,-0.6190185546875,-0.0157470703125,-5.432128429412842,3.540038824081421,8.48388671875
-0.1151123046875,-0.4876708984375,-0.0828857421875,20.690916061401367,11.169432640075684,-9.765625
-0.059326171875,-0.4744873046875,-0.04296875,25.939939498901367,14.404295921325684,-25.695798873901367
-0.05224609375,-0.506103515625,-0.0185546875,19.4091796875,22.094724655151367,-35.21728515625
-0.13720703125,-0.373291015625,-0.0958251953125,24.475095748901367,31.616209030151367,-34.36279296875
-0.1878662109375,-0.4722900390625,-0.05419921875,19.71435546875,37.78076171875,-27.221677780151367
-0.2998046875,-0.4544677734375,-0.048583984375,14.343260765075684,38.0859375,-18.98193359375
-0.3936767578125,-0.4967041015625,-0.0367431640625,10.375975608825684,35.888671875,-11.108397483825684
-0.47265625,-0.473876953125,-0.0406494140625,5.615233898162842,29.052732467651367,-3.112792730331421
-0.538330078125,-0.5838623046875,-0.0589599609375,-0.54931640625,18.12744140625,3.723144292831421
-0.5699462890625,-0.57470703125,-0.0396728515625,-4.0283203125,6.103515148162842,7.141112804412842
-0.67822265625,-0.6080322265625,-0.0550537109375,-0.8544921278953552,5.737304210662842,7.385253429412842
-0.6954345703125,-0.73486328125,-0.1739501953125,-15.563963890075684,1.03759765625,7.629394054412842
-0.779296875,-0.63916015625,-0.09423828125,-18.310546875,-4.2724609375,8.1787109375
-0.81689453125,-0.67822265625,-0.07958984375,-10.009765625,-1.9531248807907104,4.45556640625
-0.7838134765625,-0.73583984375,-0.11865234375,-15.686034202575684,-5.981444835662842,3.356933355331421
-0.839599609375,-0.6611328125,-0.10986328125,-16.2353515625,-6.103515148162842,-5.0048828125
-0.7734375,-0.6796875,-0.1524658203125,-5.371093273162842,-6.530761241912842,-1.8310545682907104
-0.770751953125,-0.616455078125,-0.10693359375,-13.061522483825684,-5.432128429412842,-2.197265625
-0.75634765625,-0.662353515625,-0.110107421875,-6.591796398162842,-2.01416015625,-2.929687261581421
-0.7769775390625,-0.64599609375,-0.0906982421875,-1.5258787870407104,-0.3662109076976776,-3.051757574081421
-0.761962890625,-0.6629638671875,-0.1318359375,-6.469726085662842,0.0,-4.8828125
-0.7200927734375,-0.6192626953125,-0.0050048828125,-4.638671875,-3.417968511581421,-1.03759765625
-0.71484375,-0.61669921875,-0.071044921875,-3.723144292831421,-1.7089842557907104,-1.4038084745407104
-0.7005615234375,-0.68798828125,-0.1351318359375,-12.023924827575684,-5.0048828125,0.1220703050494194
-0.74755859375,-0.63720703125,-0.0814208984375,-14.770506858825684,-5.676269054412842,0.4272460639476776
-0.7733154296875,-0.6180419921875,-0.0609130859375,-10.009765625,-4.39453125,0.6713866591453552
-0.769775390625,-0.658935546875,-0.1131591796875,-10.009765625,-3.479003667831421,-0.9155272841453552
-0.760986328125,-0.6627197265625,-0.1220703125,-8.23974609375,-5.737304210662842,-0.9765624403953552
-0.7822265625,-0.6175537109375,-0.07470703125,-4.57763671875,-5.676269054412842,-3.845214605331421
-0.751220703125,-0.625732421875,-0.1007080078125,0.6103515625,-5.676269054412842,-3.784179449081421
-0.751708984375,-0.629638671875,-0.0985107421875,-8.056640625,-9.033203125,-2.868652105331421
-0.7802734375,-0.61083984375,-0.1064453125,-3.906249761581421,-6.652831554412842,-3.906249761581421
-0.7572021484375,-0.632568359375,-0.1297607421875,-1.7089842557907104,-6.042479991912842,-2.197265625
-0.7655029296875,-0.61279296875,-0.085205078125,-8.7890625,-4.69970703125,-4.08935546875
-0.718017578125,-0.6497802734375,-0.0947265625,-5.126952648162842,-2.563476324081421,-6.164550304412842
-0.697265625,-0.6319580078125,-0.1002197265625,-3.662109136581421,-2.25830078125,-7.873534679412842
-0.6348876953125,-0.603759765625,-0.1246337890625,-3.662109136581421,-1.8920897245407104,-9.6435546875
-0.59423828125,-0.581787109375,-0.08349609375,-8.4228515625,-2.25830078125,-8.1787109375
-0.6072998046875,-0.56494140625,-0.0797119140625,-9.82666015625,0.0610351525247097,-8.36181640625
-0.560791015625,-0.6485595703125,-0.1226806640625,-5.371093273162842,-0.6103515625,-2.563476324081421
-0.615966796875,-0.555419921875,-0.0960693359375,-4.39453125,-2.13623046875,-2.13623046875
-0.657470703125,-0.5848388671875,-0.0740966796875,2.990722417831421,2.685546636581421,-0.7934569716453552
-0.6395263671875,-0.6668701171875,-0.1131591796875,1.7700194120407104,0.54931640625,2.807616949081421
-0.6220703125,-0.571044921875,-0.0989990234375,-4.150390625,-3.479003667831421,5.554198741912842
-0.7025146484375,-0.5994873046875,-0.0780029296875,8.6669921875,4.39453125,-0.30517578125
-0.5650634765625,-0.69970703125,-0.2109375,12.268065452575684,-2.868652105331421,8.48388671875
-0.71826171875,-0.51123046875,-0.0067138671875,-9.521484375,-4.638671875,2.990722417831421
-0.6929931640625,-0.6314697265625,-0.1441650390625,12.329100608825684,4.08935546875,0.9155272841453552
-0.58642578125,-0.7613525390625,-0.179931640625,10.009765625,-5.981444835662842,8.30078125
-0.8697509765625,-0.5181884765625,0.0042724609375,-12.512206077575684,3.601073980331421,-10.131834983825684
-0.648193359375,-0.6815185546875,-0.2508544921875,12.329100608825684,7.873534679412842,-10.009765625
-0.656494140625,-0.7744140625,-0.125732421875,7.263183116912842,-4.638671875,-0.3662109076976776
-0.956787109375,-0.4625244140625,0.048583984375,-10.864256858825684,6.408690929412842,-23.559568405151367
-0.6234130859375,-0.6441650390625,-0.1480712890625,31.555173873901367,12.939452171325684,-18.06640625
-0.615234375,-0.669189453125,-0.1802978515625,23.925779342651367,4.21142578125,-18.49365234375
-0.9661865234375,-0.5142822265625,-0.03662109375,-5.432128429412842,11.169432640075684,-32.1044921875
-0.698974609375,-0.6597900390625,-0.1776123046875,27.587888717651367,14.831542015075684,-30.639646530151367
-0.706298828125,-0.6185302734375,-0.134033203125,33.63037109375,5.554198741912842,-32.40966796875
-1.029541015625,-0.5523681640625,0.0335693359375,3.906249761581421,10.681151390075684,-38.0859375
-0.819091796875,-0.523681640625,-0.21875,20.01953125,10.498045921325684,-32.77587890625
-0.7801513671875,-0.7047119140625,-0.131591796875,20.690916061401367,5.187987804412842,-29.235837936401367
-1.063232421875,-0.4827880859375,-0.031494140625,5.554198741912842,4.57763671875,-35.0341796875
-0.934326171875,-0.49267578125,-0.1494140625,4.5166015625,5.065917491912842,-33.0810546875
-0.8798828125,-0.5958251953125,-0.1126708984375,8.7890625,-0.1831054538488388,-36.07177734375
-0.9365234375,-0.4632568359375,-0.0960693359375,0.6103515625,-2.563476324081421,-34.66796875
-0.9693603515625,-0.399169921875,-0.08642578125,-12.023924827575684,1.2817381620407104,-38.6962890625
-0.9945068359375,-0.448974609375,-0.092529296875,-1.2817381620407104,7.934569835662842,-45.593257904052734
-0.9801025390625,-0.472900390625,-0.2083740234375,5.554198741912842,9.58251953125,-45.776363372802734
-1.0035400390625,-0.434814453125,-0.144775390625,-6.347655773162842,6.713866710662842,-47.302242279052734
-1.0906982421875,-0.380126953125,-0.0426025390625,-8.1787109375,8.97216796875,-51.269527435302734
-1.0714111328125,-0.3431396484375,-0.080078125,6.347655773162842,9.1552734375,-45.471187591552734
-1.06005859375,-0.3548583984375,-0.1190185546875,7.019042491912842,7.080077648162842,-42.053218841552734
-1.0821533203125,-0.344970703125,-0.11279296875,0.1220703050494194,4.57763671875,-38.63525390625
-1.070556640625,-0.29248046875,-0.0771484375,-1.8920897245407104,1.8310545682907104,-27.648923873901367
-1.052001953125,-0.2677001953125,-0.080078125,-2.685546636581421,0.1220703050494194,-16.29638671875
-1.0361328125,-0.3052978515625,-0.0958251953125,-5.493163585662842,-2.44140625,-10.498045921325684
-1.0234375,-0.2484130859375,-0.12451171875,-6.347655773162842,-4.8828125,-8.11767578125
-1.016845703125,-0.23583984375,-0.060546875,-6.103515148162842,-2.746581792831421,-6.896972179412842
-1.0030517578125,-0.2635498046875,-0.115966796875,-4.0283203125,-1.5258787870407104,-5.187987804412842
-1.009521484375,-0.323486328125,-0.1053466796875,-6.530761241912842,-3.662109136581421,-6.286620616912842
-1.023681640625,-0.2572021484375,-0.0977783203125,-4.0283203125,-4.638671875,-4.638671875
-0.9910888671875,-0.2110595703125,-0.0838623046875,4.0283203125,-2.44140625,-1.9531248807907104
-0.9725341796875,-0.2557373046875,-0.1021728515625,8.11767578125,-0.7324218153953552,0.2441406100988388
-0.950439453125,-0.2779541015625,-0.11376953125,6.713866710662842,-1.3427733182907104,0.0610351525247097
-0.9532470703125,-0.25048828125,-0.0958251953125,7.934569835662842,-0.9765624403953552,0.1220703050494194
-0.9647216796875,-0.2366943359375,-0.0968017578125,12.268065452575684,0.54931640625,-0.1220703050494194
-0.9649658203125,-0.2685546875,-0.13232421875,13.977049827575684,0.9765624403953552,-2.25830078125
-0.9622802734375,-0.2637939453125,-0.11083984375,10.803221702575684,0.30517578125,-4.45556640625
-0.95458984375,-0.2381591796875,-0.1025390625,12.023924827575684,0.6103515625,-2.990722417831421
-0.9495849609375,-0.259765625,-0.10595703125,10.314940452575684,-0.3662109076976776,-3.356933355331421
-0.9669189453125,-0.26025390625,-0.1080322265625,7.751464366912842,-1.220703125,-3.601073980331421
-0.9703369140625,-0.2513427734375,-0.114501953125,6.225585460662842,-1.6479490995407104,-3.173827886581421
-0.9666748046875,-0.261962890625,-0.10595703125,3.906249761581421,-1.220703125,-2.50244140625
-0.9722900390625,-0.2452392578125,-0.1123046875,-2.807616949081421,-1.2817381620407104,-2.563476324081421
-0.970458984375,-0.2469482421875,-0.1168212890625,-2.38037109375,-1.0986328125,-1.03759765625
-0.9652099609375,-0.2528076171875,-0.1202392578125,0.8544921278953552,-0.9765624403953552,0.2441406100988388
-0.953857421875,-0.25341796875,-0.109619140625,-2.563476324081421,-1.5258787870407104,0.54931640625
-0.966064453125,-0.2374267578125,-0.0943603515625,-5.676269054412842,-0.3662109076976776,0.2441406100988388
-0.9749755859375,-0.2440185546875,-0.1124267578125,-0.4272460639476776,0.30517578125,0.8544921278953552
-0.976806640625,-0.2667236328125,-0.129638671875,0.4272460639476776,-0.1831054538488388,-0.0610351525247097
-0.9735107421875,-0.251708984375,-0.109130859375,-0.7934569716453552,-0.30517578125,-0.7324218153953552
-0.960693359375,-0.2454833984375,-0.0914306640625,0.1220703050494194,0.2441406100988388,-0.1831054538488388
-0.950927734375,-0.253173828125,-0.102294921875,1.9531248807907104,0.4882812201976776,0.30517578125
-0.944580078125,-0.26318359375,-0.117919921875,2.13623046875,0.0610351525247097,0.3662109076976776
-0.953857421875,-0.2630615234375,-0.110107421875,1.03759765625,0.4272460639476776,0.0610351525247097
-0.9625244140625,-0.244873046875,-0.1002197265625,3.234863042831421,1.7089842557907104,0.0610351525247097
-0.9691162109375,-0.2672119140625,-0.1173095703125,3.173827886581421,1.8310545682907104,0.4882812201976776
-0.974365234375,-0.268310546875,-0.11083984375,0.4272460639476776,1.0986328125,-0.1220703050494194
-0.966552734375,-0.2548828125,-0.10009765625,2.3193359375,0.54931640625,-0.4882812201976776
-0.960205078125,-0.2584228515625,-0.099609375,3.845214605331421,1.15966796875,-1.4648436307907104
-0.94873046875,-0.2762451171875,-0.114013671875,2.25830078125,0.1831054538488388,-1.9531248807907104
-2.076904296875,-0.3209228515625,-0.2318115234375,-21.850584030151367,-46.936031341552734,123.96239471435547
-2.115234375,-0.520263671875,-0.37060546875,4.57763671875,-54.260250091552734,156.18896484375
-1.8505859375,-0.629638671875,-0.4610595703125,-17.15087890625,-59.143062591552734,162.47557067871094
-1.391357421875,-0.6536865234375,-0.20751953125,-22.216794967651367,-50.903316497802734,150.2685546875
-1.00146484375,-0.7802734375,-0.1483154296875,-4.8828125,-23.437498092651367,130.0048828125
-0.53662109375,-0.7869873046875,-0.3154296875,-9.3994140625,-13.732909202575684,98.81591033935547
-0.29345703125,-0.582763671875,-0.2705078125,-21.423337936401367,-13.244627952575684,59.082027435302734
-0.20166015625,-0.5078125,-0.0157470703125,-10.986327171325684,-4.638671875,18.798828125
-0.057373046875,-0.4581298828125,0.0382080078125,0.8544921278953552,7.934569835662842,-7.690429210662842
0.052001953125,-0.3857421875,-0.066650390625,9.94873046875,10.620116233825684,-27.465818405151367
0.03759765625,-0.4617919921875,0.0147705078125,15.930174827575684,16.9677734375,-39.73388671875
-0.026611328125,-0.3421630859375,0.046875,18.310546875,28.137205123901367,-33.0810546875
-0.1829833984375,-0.3026123046875,-0.0706787109375,7.995604991912842,35.0341796875,-30.761716842651367
-0.2796630859375,-0.5125732421875,-0.1094970703125,-9.82666015625,31.433103561401367,-23.986814498901367
-0.347412109375,-0.4156494140625,-0.1082763671875,3.356933355331421,19.34814453125,-3.601073980331421
