aX,aY,aZ,gX,gY,gZ
1.58349609375,0.7435302734375,0.4036865234375,-21.972654342651367,9.09423828125,16.9677734375
1.85888671875,0.862548828125,0.3536376953125,-32.65380859375,23.254392623901367,39.24560546875
1.8724365234375,0.8421630859375,0.39453125,-36.2548828125,32.65380859375,54.077144622802734
1.748779296875,0.6873779296875,0.372802734375,-31.677244186401367,33.87451171875,57.250972747802734
1.5650634765625,0.6090087890625,0.265625,-23.193357467651367,25.329587936401367,36.9873046875
1.326904296875,0.5108642578125,0.170166015625,-6.713866710662842,3.417968511581421,6.347655773162842
0.9556884765625,0.3345947265625,0.1944580078125,-8.60595703125,-12.084959983825684,-22.949216842651367
0.775634765625,0.2535400390625,0.1005859375,7.812499523162842,-34.11865234375,-58.898921966552734
0.55322265625,0.185791015625,-0.032470703125,24.658201217651367,-58.227535247802734,-88.74510955810547
0.3773193359375,0.180908203125,0.0748291015625,5.249022960662842,-74.3408203125,-120.48339080810547
0.1217041015625,0.148681640625,0.28515625,4.8828125,-74.03564453125,-140.80810546875
0.0687255859375,-0.005615234375,0.2685546875,2.990722417831421,-70.068359375,-141.66259765625
0.1407470703125,-0.1070556640625,0.2054443359375,-10.192870140075684,-74.21875,-132.8125
0.1895751953125,-0.0477294921875,0.26953125,-7.507323741912842,-70.3125,-119.14061737060547
0.30029296875,-0.044921875,0.281494140625,-0.7324218153953552,-49.316402435302734,-92.77342987060547
0.4620361328125,0.01806640625,0.29345703125,-11.291502952575684,-39.00146484375,-62.988277435302734
0.55810546875,0.1231689453125,0.4375,-2.38037109375,-21.667478561401367,-31.127927780151367
0.6864013671875,0.0079345703125,0.4429931640625,10.925292015075684,-5.371093273162842,-5.065917491912842
0.785888671875,-0.0550537109375,0.442626953125,1.8920897245407104,-4.638671875,6.774901866912842
0.854248046875,-0.02783203125,0.473388671875,5.981444835662842,-3.540038824081421,11.779784202575684
0.8868408203125,-0.0574951171875,0.5137939453125,-0.4882812201976776,-7.324218273162842,6.042479991912842
0.8856201171875,-0.0255126953125,0.6025390625,-9.3994140625,-8.72802734375,3.540038824081421
0.83837890625,-0.0166015625,0.5655517578125,-1.5258787870407104,-5.371093273162842,1.7700194120407104
0.84130859375,-0.0413818359375,0.530517578125,1.4038084745407104,-6.286620616912842,3.051757574081421
0.825927734375,-0.01171875,0.547607421875,-3.967284917831421,-6.774901866912842,1.4038084745407104
0.8243408203125,0.0203857421875,0.5404052734375,1.15966796875,-3.479003667831421,1.8920897245407104
0.826904296875,-0.0155029296875,0.5255126953125,7.202147960662842,-2.3193359375,1.03759765625
0.8338623046875,-0.00439453125,0.5255126953125,8.97216796875,-3.112792730331421,0.3662109076976776
0.815185546875,0.010986328125,0.545654296875,12.023924827575684,-1.6479490995407104,1.7700194120407104
0.8084716796875,-0.01904296875,0.50927734375,14.404295921325684,1.15966796875,3.234863042831421
0.8194580078125,-0.0108642578125,0.5242919921875,9.1552734375,-0.1220703050494194,4.57763671875
0.810791015625,0.0013427734375,0.5496826171875,5.0048828125,0.54931640625,5.615233898162842
0.8431396484375,-0.0208740234375,0.540283203125,2.685546636581421,0.0610351525247097,3.601073980331421
0.8583984375,-0.019775390625,0.5667724609375,-2.197265625,-3.051757574081421,1.5258787870407104
0.841064453125,-0.01953125,0.5765380859375,-1.3427733182907104,-2.25830078125,1.2817381620407104
0.8311767578125,-0.031494140625,0.54248046875,-1.7089842557907104,0.0610351525247097,0.9765624403953552
0.8375244140625,-0.036376953125,0.5108642578125,-1.220703125,1.2817381620407104,3.173827886581421
0.7681884765625,-0.0230712890625,0.498779296875,2.0751953125,5.126952648162842,8.4228515625
0.7283935546875,-0.0142822265625,0.4644775390625,8.7890625,11.169432640075684,18.6767578125
0.6688232421875,-0.007568359375,0.4443359375,16.11328125,18.98193359375,33.5693359375
0.6368408203125,-0.014404296875,0.4029541015625,14.343260765075684,25.268552780151367,51.208492279052734
0.5391845703125,0.0362548828125,0.425048828125,16.54052734375,33.69140625,66.162109375
0.568359375,-0.0028076171875,0.31982421875,22.399900436401367,44.494625091552734,81.48192596435547
0.683837890625,-0.0223388671875,0.294921875,2.807616949081421,33.99658203125,83.37401580810547
0.4803466796875,0.1578369140625,0.520263671875,1.0986328125,41.381832122802734,87.34130096435547
0.567138671875,0.080810546875,0.3087158203125,13.732909202575684,57.312007904052734,88.50096893310547
0.8226318359375,0.0625,0.1864013671875,10.803221702575684,39.48974609375,85.81542205810547
0.6448974609375,0.2808837890625,0.499267578125,-11.962889671325684,39.4287109375,76.171875
0.734130859375,0.259521484375,0.3360595703125,-8.36181640625,50.964351654052734,59.265132904052734
0.9666748046875,0.235107421875,0.2313232421875,15.747069358825684,36.62109375,63.171382904052734
0.7947998046875,0.377685546875,0.4071044921875,-3.479003667831421,33.38623046875,45.959468841552734
0.96728515625,0.4002685546875,0.250244140625,12.390135765075684,33.38623046875,35.21728515625
0.9920654296875,0.408203125,0.363525390625,10.864256858825684,22.949216842651367,37.04833984375
0.930908203125,0.483154296875,0.363037109375,-1.5258787870407104,24.230955123901367,14.892577171325684
1.087646484375,0.448486328125,0.2337646484375,17.578125,21.484373092651367,9.765625
1.0208740234375,0.4324951171875,0.30224609375,21.850584030151367,10.559081077575684,9.3994140625
0.950927734375,0.5062255859375,0.3355712890625,20.812986373901367,11.291502952575684,1.15966796875
1.02490234375,0.4268798828125,0.2606201171875,33.0810546875,12.329100608825684,-0.3662109076976776
1.0103759765625,0.424072265625,0.2720947265625,32.2265625,2.990722417831421,-3.845214605331421
0.972900390625,0.4696044921875,0.3299560546875,19.47021484375,-1.0986328125,-11.169432640075684
0.9686279296875,0.399169921875,0.30029296875,25.451658248901367,1.7700194120407104,-11.840819358825684
1.0645751953125,0.34716796875,0.2447509765625,13.916014671325684,-7.080077648162842,-7.690429210662842
0.9935302734375,0.4490966796875,0.4146728515625,0.9765624403953552,-10.070799827575684,-8.544921875
0.9771728515625,0.348876953125,0.3804931640625,14.221190452575684,-4.57763671875,-6.164550304412842
1.040771484375,0.3519287109375,0.2735595703125,24.475095748901367,-6.164550304412842,0.7934569716453552
0.9659423828125,0.43994140625,0.3441162109375,10.986327171325684,-11.291502952575684,-2.685546636581421
0.9600830078125,0.3905029296875,0.2950439453125,16.41845703125,-10.070799827575684,-3.662109136581421
0.998779296875,0.3775634765625,0.3121337890625,13.610838890075684,-11.291502952575684,-2.0751953125
0.9547119140625,0.3836669921875,0.370849609375,10.681151390075684,-9.94873046875,-2.563476324081421
0.960205078125,0.35498046875,0.3563232421875,15.686034202575684,-5.798339366912842,0.9155272841453552
0.9674072265625,0.375,0.3326416015625,18.00537109375,-5.920409679412842,4.7607421875
0.9271240234375,0.3863525390625,0.349365234375,6.896972179412842,-7.080077648162842,2.0751953125
0.9190673828125,0.3607177734375,0.3338623046875,6.225585460662842,-5.920409679412842,0.7934569716453552
0.923583984375,0.343017578125,0.3341064453125,5.798339366912842,-6.408690929412842,2.929687261581421
0.889892578125,0.3524169921875,0.3939208984375,-6.591796398162842,-7.690429210662842,2.807616949081421
0.8709716796875,0.3428955078125,0.3853759765625,-4.33349609375,-3.234863042831421,0.9765624403953552
0.867919921875,0.3275146484375,0.34521484375,-0.2441406100988388,-2.3193359375,-0.4882812201976776
0.8673095703125,0.3560791015625,0.3486328125,1.2817381620407104,-4.45556640625,-0.2441406100988388
0.867919921875,0.3577880859375,0.3602294921875,2.44140625,-3.906249761581421,-2.25830078125
0.873779296875,0.348388671875,0.35498046875,5.371093273162842,-2.563476324081421,-4.0283203125
0.867431640625,0.33740234375,0.3828125,3.845214605331421,-1.4648436307907104,-3.845214605331421
0.86376953125,0.33544921875,0.3818359375,0.9155272841453552,-0.8544921278953552,-4.45556640625
0.867431640625,0.3203125,0.3758544921875,1.9531248807907104,0.30517578125,-4.150390625
0.8858642578125,0.3345947265625,0.343505859375,4.638671875,-0.1220703050494194,-2.685546636581421
0.8685302734375,0.34619140625,0.3851318359375,0.3662109076976776,-2.3193359375,-3.295898199081421
0.850341796875,0.326416015625,0.4078369140625,-2.868652105331421,-1.5258787870407104,-3.723144292831421
0.8763427734375,0.3065185546875,0.3553466796875,1.220703125,-0.2441406100988388,-2.38037109375
0.8841552734375,0.315673828125,0.3463134765625,1.0986328125,-0.7324218153953552,-1.0986328125
0.86865234375,0.330078125,0.3621826171875,-2.807616949081421,-1.6479490995407104,-2.624511480331421
0.85595703125,0.3145751953125,0.3856201171875,-3.112792730331421,-0.9155272841453552,-2.25830078125
0.86083984375,0.307861328125,0.37744140625,-0.6713866591453552,-0.54931640625,-0.9155272841453552
0.8680419921875,0.305419921875,0.3565673828125,2.38037109375,-1.2817381620407104,0.3662109076976776
0.856201171875,0.322021484375,0.3624267578125,1.7089842557907104,-1.9531248807907104,-1.220703125
0.853271484375,0.3145751953125,0.37109375,1.8310545682907104,-1.7089842557907104,-1.7089842557907104
0.865234375,0.3228759765625,0.3773193359375,1.5869139432907104,-2.01416015625,-1.7089842557907104
0.8720703125,0.3154296875,0.370361328125,-1.0986328125,-2.0751953125,-2.990722417831421
0.868896484375,0.30517578125,0.3958740234375,-3.417968511581421,-1.2817381620407104,-2.929687261581421
0.872314453125,0.316650390625,0.41015625,-1.8310545682907104,-0.1831054538488388,-0.9155272841453552
0.8775634765625,0.32177734375,0.3848876953125,0.4272460639476776,-0.1220703050494194,0.2441406100988388
0.8721923828125,0.313232421875,0.3699951171875,-0.9765624403953552,-0.7324218153953552,0.0
0.8582763671875,0.305908203125,0.3861083984375,-2.990722417831421,-0.9765624403953552,-0.2441406100988388
0.847900390625,0.296630859375,0.3994140625,-2.13623046875,0.0,0.6713866591453552
0.849365234375,0.311279296875,0.3951416015625,0.30517578125,0.9765624403953552,1.9531248807907104
0.86083984375,0.3143310546875,0.360595703125,0.9765624403953552,1.220703125,0.9155272841453552
0.8594970703125,0.32421875,0.3563232421875,-0.8544921278953552,1.0986328125,-0.9765624403953552
0.861572265625,0.3218994140625,0.3763427734375,-2.746581792831421,0.4272460639476776,-1.220703125
0.8607177734375,0.321533203125,0.3994140625,-3.479003667831421,0.4882812201976776,-1.4038084745407104
0.869873046875,0.317138671875,0.395263671875,-0.4882812201976776,1.03759765625,-0.1220703050494194
0.879638671875,0.328125,0.372802734375,3.356933355331421,1.15966796875,2.38037109375
0.8740234375,0.3419189453125,0.365966796875,1.7700194120407104,0.1220703050494194,2.0751953125
0.8570556640625,0.335205078125,0.373779296875,-2.990722417831421,-0.2441406100988388,0.0610351525247097
0.8502197265625,0.32080078125,0.3826904296875,-3.723144292831421,0.9155272841453552,-0.9765624403953552
0.8544921875,0.3048095703125,0.36767578125,-0.6713866591453552,1.7700194120407104,-0.54931640625
0.8487548828125,0.3203125,0.369384765625,0.8544921278953552,1.220703125,-0.2441406100988388
0.8575439453125,0.32373046875,0.3651123046875,1.7089842557907104,-0.1831054538488388,0.1220703050494194
0.8564453125,0.324951171875,0.3743896484375,0.4882812201976776,-1.2817381620407104,-0.4272460639476776
0.859619140625,0.3172607421875,0.3707275390625,1.4648436307907104,-0.7934569716453552,-0.2441406100988388
0.8636474609375,0.3143310546875,0.3753662109375,1.15966796875,-0.8544921278953552,0.0
0.8616943359375,0.3297119140625,0.3890380859375,-0.4272460639476776,-0.54931640625,-0.30517578125
1.482666015625,0.7569580078125,0.453369140625,-52.246089935302734,23.132322311401367,19.4091796875
1.557373046875,0.7366943359375,0.45458984375,-62.927242279052734,29.541013717651367,25.756834030151367
1.6021728515625,0.705322265625,0.37255859375,-56.335445404052734,35.64453125,27.893064498901367
1.523193359375,0.6351318359375,0.345947265625,-46.020503997802734,34.24072265625,23.437498092651367
1.3603515625,0.51220703125,0.329833984375,-36.31591796875,25.207517623901367,7.873534679412842
1.221435546875,0.4361572265625,0.299560546875,-23.010251998901367,17.4560546875,-2.38037109375
1.1444091796875,0.3968505859375,0.197021484375,-13.244627952575684,-3.112792730331421,-22.460935592651367
1.041015625,0.3585205078125,0.173828125,-10.070799827575684,-32.53173828125,-44.311519622802734
0.775390625,0.22314453125,0.1986083984375,4.45556640625,-58.227535247802734,-64.88037109375
0.561279296875,0.103271484375,0.1676025390625,17.39501953125,-70.86181640625,-77.392578125
0.3731689453125,0.1121826171875,0.196533203125,10.192870140075684,-76.7822265625,-97.47313690185547
0.209228515625,0.042236328125,0.2288818359375,4.8828125,-71.2890625,-108.45946502685547
0.227294921875,0.003662109375,0.236572265625,-10.620116233825684,-65.61279296875,-110.16844940185547
0.287353515625,-0.04541015625,0.242919921875,-17.15087890625,-62.805171966552734,-101.80663299560547
0.324951171875,-0.0325927734375,0.3204345703125,-16.17431640625,-57.800289154052734,-85.32714080810547
0.407958984375,0.0029296875,0.3939208984375,-10.253905296325684,-44.189449310302734,-65.00244140625
0.5242919921875,0.042236328125,0.3863525390625,-1.8920897245407104,-29.785154342651367,-40.222164154052734
0.5977783203125,0.1029052734375,0.436279296875,3.601073980331421,-18.98193359375,-21.301267623901367
0.70263671875,0.1024169921875,0.47119140625,-1.7700194120407104,-7.080077648162842,-2.990722417831421
0.775146484375,0.09375,0.513671875,1.03759765625,7.934569835662842,15.747069358825684
0.86474609375,0.0733642578125,0.4730224609375,-2.990722417831421,3.906249761581421,16.66259765625
0.8363037109375,0.1376953125,0.5284423828125,-5.187987804412842,1.2817381620407104,7.080077648162842
0.85693359375,0.1070556640625,0.49267578125,-1.8310545682907104,2.807616949081421,6.469726085662842
0.8603515625,0.106689453125,0.5125732421875,-2.3193359375,0.2441406100988388,2.929687261581421
0.834228515625,0.1259765625,0.51416015625,0.2441406100988388,-0.6713866591453552,-0.4882812201976776
0.8558349609375,0.1221923828125,0.5040283203125,2.990722417831421,1.8310545682907104,-0.6713866591453552
0.844482421875,0.1041259765625,0.453369140625,4.33349609375,2.990722417831421,-1.8310545682907104
0.84521484375,0.09130859375,0.451416015625,7.141112804412842,0.7324218153953552,-2.868652105331421
0.817626953125,0.112060546875,0.487548828125,9.1552734375,0.54931640625,-2.807616949081421
0.82080078125,0.079345703125,0.4654541015625,12.329100608825684,3.784179449081421,0.1831054538488388
0.81689453125,0.080322265625,0.4627685546875,8.85009765625,3.234863042831421,2.3193359375
0.8087158203125,0.08837890625,0.4483642578125,10.986327171325684,5.798339366912842,6.103515148162842
0.78662109375,0.0615234375,0.451904296875,10.253905296325684,6.774901866912842,10.559081077575684
0.755859375,0.083740234375,0.47021484375,10.864256858825684,11.535643577575684,19.10400390625
0.73291015625,0.091552734375,0.4393310546875,17.88330078125,17.7001953125,25.268552780151367
0.7852783203125,0.056884765625,0.3675537109375,17.822265625,17.7001953125,31.188962936401367
0.7357177734375,0.108154296875,0.3978271484375,12.084959983825684,17.2119140625,35.5224609375
0.6842041015625,0.1103515625,0.4034423828125,17.9443359375,24.353025436401367,40.283199310302734
0.7542724609375,0.0953369140625,0.3358154296875,16.4794921875,22.277830123901367,42.724605560302734
0.69921875,0.084716796875,0.4158935546875,7.751464366912842,20.690916061401367,45.898433685302734
0.7052001953125,0.12255859375,0.3836669921875,7.995604991912842,26.916501998901367,48.889156341552734
0.7642822265625,0.125244140625,0.401611328125,6.591796398162842,21.972654342651367,49.499507904052734
0.7158203125,0.1812744140625,0.4517822265625,4.2724609375,26.367185592651367,51.757808685302734
0.85009765625,0.156005859375,0.3221435546875,4.39453125,26.550291061401367,48.095699310302734
0.90283203125,0.21923828125,0.3763427734375,1.8920897245407104,18.6767578125,43.762203216552734
0.7706298828125,0.2935791015625,0.46826171875,-2.50244140625,25.268552780151367,37.04833984375
0.9598388671875,0.230712890625,0.322509765625,1.03759765625,26.977537155151367,33.26416015625
0.880859375,0.2320556640625,0.3939208984375,5.0048828125,17.51708984375,33.02001953125
0.767578125,0.273681640625,0.4268798828125,0.8544921278953552,21.240232467651367,26.794431686401367
0.89501953125,0.2572021484375,0.3133544921875,17.7001953125,24.230955123901367,24.841306686401367
0.890625,0.25634765625,0.344970703125,22.216794967651367,16.11328125,29.602048873901367
0.8021240234375,0.3492431640625,0.3665771484375,3.662109136581421,16.6015625,17.02880859375
0.9990234375,0.345947265625,0.2432861328125,9.8876953125,15.258788108825684,11.413573265075684
0.940185546875,0.3118896484375,0.320068359375,7.568358898162842,11.352538108825684,10.070799827575684
0.8779296875,0.3447265625,0.353759765625,-4.39453125,13.793944358825684,0.7324218153953552
1.025146484375,0.367919921875,0.2896728515625,6.469726085662842,9.94873046875,1.5258787870407104
0.950439453125,0.369873046875,0.36767578125,-0.3662109076976776,6.347655773162842,-1.8920897245407104
0.934814453125,0.373291015625,0.32861328125,2.868652105331421,8.85009765625,-6.774901866912842
1.0045166015625,0.3443603515625,0.2926025390625,16.90673828125,4.8828125,-2.01416015625
0.9462890625,0.3482666015625,0.359130859375,6.347655773162842,-0.9155272841453552,-3.051757574081421
0.9666748046875,0.38720703125,0.3292236328125,7.141112804412842,0.6103515625,-5.493163585662842
0.9989013671875,0.328857421875,0.2919921875,11.779784202575684,1.2817381620407104,-5.737304210662842
0.9749755859375,0.3236083984375,0.3017578125,7.385253429412842,-0.7324218153953552,-7.812499523162842
0.9647216796875,0.357177734375,0.3377685546875,9.033203125,-2.13623046875,-5.187987804412842
0.9508056640625,0.359375,0.361572265625,15.075682640075684,-0.9155272841453552,-4.45556640625
0.9710693359375,0.31298828125,0.317138671875,17.4560546875,-2.563476324081421,-4.08935546875
0.984130859375,0.335205078125,0.3135986328125,22.705076217651367,-4.57763671875,0.0610351525247097
0.9495849609375,0.359619140625,0.3646240234375,22.216794967651367,-4.08935546875,-1.7700194120407104
0.932373046875,0.3406982421875,0.3565673828125,21.728513717651367,-4.150390625,-1.7089842557907104
0.9713134765625,0.2894287109375,0.2923583984375,28.747556686401367,-9.21630859375,3.417968511581421
0.9228515625,0.3350830078125,0.357421875,22.521970748901367,-13.854979515075684,1.7089842557907104
0.880859375,0.3516845703125,0.4002685546875,13.916014671325684,-14.221190452575684,0.9765624403953552
0.91552734375,0.283447265625,0.3702392578125,13.305663108825684,-13.427733421325684,2.563476324081421
0.9217529296875,0.2886962890625,0.3941650390625,13.183592796325684,-14.099120140075684,3.234863042831421
0.896484375,0.3150634765625,0.40673828125,6.530761241912842,-11.108397483825684,1.7089842557907104
0.904296875,0.3084716796875,0.361328125,3.662109136581421,-7.507323741912842,-1.2817381620407104
0.90234375,0.3040771484375,0.3360595703125,3.051757574081421,-9.09423828125,-2.38037109375
0.870361328125,0.320556640625,0.384521484375,-0.6713866591453552,-12.329100608825684,-2.868652105331421
0.8701171875,0.327392578125,0.4342041015625,-2.685546636581421,-11.596678733825684,-2.807616949081421
0.8778076171875,0.294921875,0.4383544921875,5.249022960662842,-10.498045921325684,-3.906249761581421
0.885498046875,0.2701416015625,0.4169921875,9.70458984375,-10.681151390075684,-2.13623046875
0.8819580078125,0.326416015625,0.4736328125,9.58251953125,-8.97216796875,-0.1220703050494194
0.878662109375,0.3275146484375,0.47314453125,8.23974609375,-5.371093273162842,-3.845214605331421
0.88720703125,0.2979736328125,0.387451171875,1.3427733182907104,-3.723144292831421,-6.286620616912842
0.893310546875,0.2978515625,0.3922119140625,-6.713866710662842,-6.164550304412842,-7.568358898162842
0.881591796875,0.304931640625,0.4501953125,-7.019042491912842,-5.0048828125,-8.36181640625
0.8765869140625,0.2701416015625,0.427734375,-5.310058116912842,-2.3193359375,-8.97216796875
0.867431640625,0.2545166015625,0.4241943359375,-5.126952648162842,-0.7324218153953552,-8.30078125
0.86572265625,0.2581787109375,0.441162109375,-4.150390625,1.03759765625,-6.042479991912842
0.860595703125,0.2679443359375,0.4383544921875,0.0610351525247097,2.624511480331421,-5.249022960662842
0.86279296875,0.245849609375,0.396484375,-1.5869139432907104,3.479003667831421,-7.080077648162842
0.873779296875,0.25927734375,0.3892822265625,-4.94384765625,2.624511480331421,-6.469726085662842
0.864990234375,0.254150390625,0.4295654296875,-5.615233898162842,2.807616949081421,-5.554198741912842
0.868408203125,0.254638671875,0.426025390625,-4.69970703125,3.295898199081421,-5.371093273162842
0.87109375,0.25341796875,0.4150390625,-2.44140625,3.112792730331421,-3.723144292831421
0.8916015625,0.2564697265625,0.393310546875,1.220703125,2.38037109375,-1.9531248807907104
0.8861083984375,0.2696533203125,0.390625,1.5869139432907104,1.4648436307907104,-2.01416015625
0.879638671875,0.2646484375,0.399658203125,0.0610351525247097,0.0,-2.13623046875
0.8707275390625,0.2513427734375,0.41259765625,-0.1220703050494194,-0.6713866591453552,-1.8310545682907104
0.8648681640625,0.2393798828125,0.423828125,0.3662109076976776,0.1831054538488388,-1.6479490995407104
0.8768310546875,0.25244140625,0.3975830078125,0.30517578125,0.7324218153953552,-0.6103515625
0.8681640625,0.2623291015625,0.4071044921875,-1.7700194120407104,-0.1831054538488388,-1.8920897245407104
0.866455078125,0.242919921875,0.407470703125,0.0,-0.7934569716453552,-1.0986328125
0.8662109375,0.240966796875,0.41015625,2.746581792831421,-1.220703125,0.0
0.8641357421875,0.2530517578125,0.414306640625,2.50244140625,-1.5869139432907104,-0.2441406100988388
0.8665771484375,0.2593994140625,0.4129638671875,1.4038084745407104,-1.9531248807907104,-1.03759765625
0.8658447265625,0.2528076171875,0.4107666015625,2.685546636581421,-2.197265625,-1.5258787870407104
0.86669921875,0.23388671875,0.4107666015625,3.112792730331421,-2.3193359375,-1.220703125
0.8646240234375,0.2491455078125,0.4232177734375,2.25830078125,-3.173827886581421,-1.220703125
0.872802734375,0.247314453125,0.43994140625,5.249022960662842,-3.845214605331421,2.38037109375
0.8687744140625,0.240966796875,0.43017578125,0.9155272841453552,-2.0751953125,2.13623046875
0.861328125,0.2606201171875,0.4407958984375,-2.746581792831421,-0.54931640625,1.3427733182907104
0.8560791015625,0.2490234375,0.43994140625,-3.173827886581421,0.9155272841453552,0.7324218153953552
0.8558349609375,0.2366943359375,0.4400634765625,-2.868652105331421,2.38037109375,1.5869139432907104
1.4598388671875,0.5455322265625,0.5579833984375,-83.92333221435547,30.639646530151367,9.3994140625
1.49609375,0.6787109375,0.6199951171875,-96.92382049560547,39.48974609375,27.770994186401367
1.541259765625,0.67724609375,0.57421875,-94.17723846435547,48.583980560302734,31.799314498901367
1.5819091796875,0.62744140625,0.4195556640625,-83.12987518310547,50.659175872802734,35.0341796875
1.58056640625,0.6163330078125,0.397705078125,-63.293453216552734,44.921871185302734,40.527339935302734
1.38671875,0.4998779296875,0.3807373046875,-47.973628997802734,35.7666015625,32.8369140625
1.2008056640625,0.3436279296875,0.279052734375,-24.230955123901367,22.338865280151367,14.587401390075684
1.048828125,0.2508544921875,0.2261962890625,-12.329100608825684,8.85009765625,-4.33349609375
0.9573974609375,0.26318359375,0.1920166015625,-2.868652105331421,-6.652831554412842,-25.390623092651367
0.806396484375,0.2677001953125,0.160888671875,2.0751953125,-21.545408248901367,-47.607418060302734
0.7510986328125,0.204833984375,0.0242919921875,-6.469726085662842,-34.60693359375,-72.509765625
0.587890625,0.1646728515625,0.06494140625,2.990722417831421,-49.804683685302734,-93.32274627685547
0.313720703125,0.0838623046875,0.2215576171875,8.056640625,-49.011226654052734,-105.46874237060547
0.2698974609375,0.048828125,0.202392578125,21.606443405151367,-47.363277435302734,-107.11669158935547
0.3509521484375,-0.029052734375,0.1124267578125,21.545408248901367,-48.645015716552734,-102.84423065185547
0.3226318359375,-0.0089111328125,0.1627197265625,7.080077648162842,-47.424312591552734,-110.04637908935547
0.365966796875,0.0263671875,0.260009765625,2.3193359375,-39.24560546875,-87.15819549560547
0.4727783203125,0.0474853515625,0.3016357421875,3.906249761581421,-24.963376998901367,-66.10107421875
0.630126953125,0.052978515625,0.2894287109375,13.305663108825684,-15.808104515075684,-35.2783203125
0.6695556640625,0.10791015625,0.3282470703125,18.06640625,-9.82666015625,-13.244627952575684
0.6820068359375,0.1214599609375,0.3037109375,22.277830123901367,-2.929687261581421,0.9765624403953552
0.8782958984375,0.0689697265625,0.3060302734375,-1.0986328125,-3.662109136581421,11.779784202575684
0.8358154296875,0.1141357421875,0.426513671875,-6.652831554412842,-3.906249761581421,9.82666015625
0.8857421875,0.034912109375,0.3916015625,5.187987804412842,0.9155272841453552,11.596678733825684
0.97119140625,-0.0062255859375,0.449462890625,-3.112792730331421,-5.737304210662842,7.873534679412842
0.913818359375,0.100830078125,0.49853515625,1.4038084745407104,-4.33349609375,-0.1831054538488388
0.945556640625,0.007080078125,0.4490966796875,8.30078125,-1.03759765625,-2.197265625
0.87939453125,0.0574951171875,0.4312744140625,1.7089842557907104,-1.5258787870407104,-4.2724609375
0.8267822265625,0.0560302734375,0.3642578125,7.019042491912842,2.01416015625,-1.7089842557907104
0.82568359375,0.0526123046875,0.3541259765625,8.72802734375,1.5869139432907104,0.0
0.775146484375,0.0780029296875,0.3662109375,9.09423828125,2.563476324081421,5.493163585662842
0.7330322265625,0.0662841796875,0.355224609375,12.268065452575684,6.652831554412842,16.17431640625
0.716552734375,0.0379638671875,0.322509765625,14.953612327575684,10.620116233825684,30.700681686401367
0.67041015625,0.05029296875,0.3111572265625,15.136717796325684,14.099120140075684,42.602535247802734
0.6944580078125,0.0445556640625,0.293212890625,14.953612327575684,17.333984375,52.612300872802734
0.6866455078125,0.0655517578125,0.325439453125,7.995604991912842,19.1650390625,57.739253997802734
0.7088623046875,0.0872802734375,0.334716796875,11.169432640075684,21.728513717651367,62.133785247802734
0.7877197265625,0.0947265625,0.2933349609375,13.549803733825684,22.766111373901367,63.110347747802734
0.7724609375,0.122802734375,0.33447265625,3.784179449081421,24.475095748901367,55.480953216552734
0.817138671875,0.1370849609375,0.2723388671875,0.7934569716453552,29.663084030151367,54.748531341552734
0.938720703125,0.205078125,0.2415771484375,-12.207030296325684,17.02880859375,44.494625091552734
0.86083984375,0.3028564453125,0.3599853515625,-15.319823265075684,15.441893577575684,33.99658203125
0.906494140625,0.2425537109375,0.309326171875,0.2441406100988388,15.319823265075684,33.14208984375
0.9390869140625,0.211181640625,0.2987060546875,-5.310058116912842,4.94384765625,32.3486328125
0.77001953125,0.2340087890625,0.36669921875,-11.779784202575684,10.253905296325684,28.991697311401367
0.93017578125,0.1983642578125,0.2559814453125,-0.1831054538488388,7.080077648162842,28.198240280151367
0.85009765625,0.267578125,0.369384765625,-4.39453125,3.112792730331421,26.123044967651367
0.843505859375,0.3135986328125,0.3115234375,-12.145995140075684,10.437010765075684,18.00537109375
0.980712890625,0.2847900390625,0.25048828125,-2.746581792831421,7.263183116912842,16.4794921875
0.888671875,0.3267822265625,0.3311767578125,-17.822265625,4.82177734375,9.521484375
0.9288330078125,0.3499755859375,0.278564453125,-21.545408248901367,9.765625,2.624511480331421
1.03271484375,0.340576171875,0.2679443359375,-13.000487327575684,6.042479991912842,0.9765624403953552
0.94384765625,0.3868408203125,0.3724365234375,-12.207030296325684,5.859374523162842,0.9155272841453552
0.9332275390625,0.394775390625,0.376953125,-10.131834983825684,8.544921875,-3.234863042831421
1.065185546875,0.370849609375,0.273681640625,-2.685546636581421,6.164550304412842,-12.084959983825684
1.0550537109375,0.3521728515625,0.2646484375,8.36181640625,5.371093273162842,-6.835937023162842
1.011962890625,0.4224853515625,0.3214111328125,9.82666015625,5.187987804412842,-5.615233898162842
1.027099609375,0.423095703125,0.2930908203125,6.958007335662842,2.624511480331421,-12.023924827575684
1.009765625,0.3516845703125,0.2530517578125,15.624999046325684,1.15966796875,-8.056640625
0.981201171875,0.3790283203125,0.2852783203125,14.221190452575684,-1.4038084745407104,-2.38037109375
0.9658203125,0.375732421875,0.3140869140625,6.652831554412842,-3.845214605331421,-5.371093273162842
0.9793701171875,0.3304443359375,0.29541015625,2.868652105331421,-2.13623046875,-7.751464366912842
0.9847412109375,0.27880859375,0.261474609375,-1.220703125,-1.2817381620407104,-1.7089842557907104
0.976318359375,0.342041015625,0.2828369140625,-8.30078125,-0.8544921278953552,-3.479003667831421
0.9693603515625,0.345458984375,0.2635498046875,-5.0048828125,0.6103515625,-4.33349609375
0.95703125,0.308349609375,0.2606201171875,-2.50244140625,2.197265625,-0.9765624403953552
0.9583740234375,0.312744140625,0.2554931640625,-0.9765624403953552,1.5258787870407104,0.4272460639476776
0.924072265625,0.3194580078125,0.2515869140625,5.920409679412842,2.13623046875,0.0610351525247097
0.9222412109375,0.3172607421875,0.2313232421875,9.46044921875,2.25830078125,1.2817381620407104
0.9345703125,0.33544921875,0.231201171875,7.324218273162842,0.6103515625,1.8920897245407104
0.92724609375,0.354248046875,0.2315673828125,5.310058116912842,0.0610351525247097,-1.5258787870407104
0.93505859375,0.339599609375,0.3048095703125,-3.784179449081421,-0.30517578125,-2.624511480331421
0.9268798828125,0.3302001953125,0.2864990234375,-4.150390625,4.21142578125,-4.45556640625
0.9283447265625,0.3153076171875,0.2369384765625,-2.01416015625,5.065917491912842,-4.57763671875
0.9317626953125,0.3604736328125,0.233154296875,1.2817381620407104,3.906249761581421,-2.01416015625
0.9298095703125,0.3907470703125,0.2401123046875,0.7324218153953552,2.38037109375,-0.3662109076976776
0.9322509765625,0.365234375,0.2178955078125,1.3427733182907104,-0.7324218153953552,-2.807616949081421
0.91845703125,0.333740234375,0.2252197265625,2.685546636581421,-3.356933355331421,-3.784179449081421
0.909912109375,0.3330078125,0.252685546875,2.38037109375,-3.967284917831421,-5.065917491912842
0.916015625,0.3218994140625,0.2552490234375,1.3427733182907104,-3.906249761581421,-6.347655773162842
0.9210205078125,0.3106689453125,0.2486572265625,0.1831054538488388,-2.990722417831421,-7.690429210662842
0.9305419921875,0.3104248046875,0.2340087890625,-1.3427733182907104,-2.807616949081421,-8.056640625
0.9364013671875,0.2913818359375,0.226806640625,-1.7089842557907104,-3.295898199081421,-8.11767578125
0.935791015625,0.2861328125,0.2554931640625,-2.807616949081421,-3.845214605331421,-7.812499523162842
0.9429931640625,0.2852783203125,0.26220703125,-4.69970703125,-2.868652105331421,-7.995604991912842
0.94580078125,0.2783203125,0.2535400390625,-4.638671875,-1.6479490995407104,-6.896972179412842
0.9384765625,0.261474609375,0.2618408203125,-5.310058116912842,-0.7934569716453552,-4.7607421875
0.944580078125,0.2589111328125,0.2462158203125,-3.662109136581421,-0.30517578125,-1.9531248807907104
0.909423828125,0.27197265625,0.2664794921875,-5.371093273162842,1.2817381620407104,-0.3662109076976776
0.91552734375,0.2493896484375,0.24560546875,-3.417968511581421,2.25830078125,-0.4882812201976776
0.9117431640625,0.257568359375,0.24951171875,-1.6479490995407104,2.624511480331421,1.220703125
0.904052734375,0.278564453125,0.26171875,-0.6103515625,2.990722417831421,1.5258787870407104
0.9012451171875,0.2886962890625,0.2567138671875,-0.6713866591453552,2.868652105331421,0.0
0.9132080078125,0.2821044921875,0.2435302734375,0.54931640625,2.01416015625,-0.4882812201976776
0.92138671875,0.2894287109375,0.24560546875,2.624511480331421,1.5258787870407104,-0.1831054538488388
0.9130859375,0.300537109375,0.2681884765625,3.479003667831421,0.9765624403953552,0.6103515625
0.9207763671875,0.3011474609375,0.2598876953125,2.624511480331421,0.8544921278953552,0.4272460639476776
0.9287109375,0.2886962890625,0.2471923828125,2.929687261581421,0.2441406100988388,0.0
0.9228515625,0.2900390625,0.25537109375,2.746581792831421,0.1220703050494194,-0.0610351525247097
0.9141845703125,0.29150390625,0.2625732421875,0.54931640625,0.4272460639476776,-0.1220703050494194
0.9127197265625,0.288818359375,0.2547607421875,-1.03759765625,0.30517578125,-0.0610351525247097
0.91357421875,0.2781982421875,0.2420654296875,-1.4038084745407104,0.0610351525247097,-0.30517578125
0.9100341796875,0.2744140625,0.24462890625,0.0,-0.1220703050494194,-0.7324218153953552
0.90869140625,0.28369140625,0.25341796875,0.2441406100988388,-0.1220703050494194,-1.03759765625
0.911376953125,0.28076171875,0.2545166015625,0.3662109076976776,-0.2441406100988388,-0.6103515625
0.9210205078125,0.2791748046875,0.244384765625,2.50244140625,-0.30517578125,-0.0610351525247097
0.9200439453125,0.2943115234375,0.2535400390625,2.0751953125,-0.3662109076976776,0.0
0.91650390625,0.2965087890625,0.2554931640625,0.6103515625,-0.3662109076976776,-0.7324218153953552
0.9161376953125,0.2841796875,0.251953125,0.1831054538488388,-0.6713866591453552,-1.220703125
0.9139404296875,0.28369140625,0.2557373046875,-0.2441406100988388,-1.15966796875,-1.4648436307907104
0.9168701171875,0.291259765625,0.2607421875,0.4272460639476776,-1.15966796875,-1.4648436307907104
0.9134521484375,0.292724609375,0.2567138671875,0.54931640625,-1.3427733182907104,-1.6479490995407104
0.918212890625,0.28173828125,0.25244140625,1.4648436307907104,-1.8310545682907104,-1.5869139432907104
0.91552734375,0.2828369140625,0.257568359375,3.234863042831421,-1.4648436307907104,-1.4038084745407104
0.919921875,0.2835693359375,0.2606201171875,3.112792730331421,-1.4648436307907104,-0.8544921278953552
0.9117431640625,0.28564453125,0.2713623046875,2.3193359375,-0.9155272841453552,-0.8544921278953552
1.5750732421875,0.6553955078125,0.3509521484375,-53.771968841552734,13.122557640075684,17.76123046875
1.6043701171875,0.6552734375,0.3741455078125,-51.452632904052734,14.587401390075684,27.893064498901367
1.5574951171875,0.5836181640625,0.3416748046875,-42.663570404052734,16.90673828125,31.738279342651367
1.4735107421875,0.4761962890625,0.258056640625,-30.822751998901367,12.878417015075684,28.198240280151367
1.348388671875,0.3822021484375,0.2025146484375,-17.2119140625,2.685546636581421,17.63916015625
1.2305908203125,0.3560791015625,0.1922607421875,-5.249022960662842,-10.070799827575684,2.807616949081421
1.0870361328125,0.285888671875,0.19677734375,1.5258787870407104,-24.780271530151367,-18.61572265625
0.92578125,0.2052001953125,0.1414794921875,11.230467796325684,-34.60693359375,-33.14208984375
0.8262939453125,0.1378173828125,0.111083984375,21.423337936401367,-46.813961029052734,-52.124019622802734
0.61767578125,0.1181640625,0.153564453125,24.719236373901367,-54.992671966552734,-72.08251953125
0.44775390625,0.1181640625,0.2110595703125,27.099607467651367,-55.541988372802734,-92.65135955810547
0.3253173828125,0.01904296875,0.2064208984375,22.094724655151367,-52.062984466552734,-105.59081268310547
0.345458984375,-0.0343017578125,0.18994140625,1.220703125,-55.847164154052734,-120.66649627685547
0.3260498046875,-0.0697021484375,0.2305908203125,1.3427733182907104,-55.419918060302734,-120.78856658935547
0.2471923828125,-0.0303955078125,0.2967529296875,18.24951171875,-47.302242279052734,-101.74559783935547
0.43603515625,-0.072265625,0.2701416015625,10.192870140075684,-39.1845703125,-82.94676971435547
0.498291015625,0.0380859375,0.3431396484375,8.36181640625,-28.747556686401367,-68.05419921875
0.586669921875,0.079345703125,0.4124755859375,30.212400436401367,-3.479003667831421,-26.428220748901367
0.6746826171875,-0.0416259765625,0.3194580078125,28.808591842651367,6.408690929412842,4.7607421875
0.7982177734375,0.0068359375,0.2850341796875,14.770506858825684,3.784179449081421,22.155759811401367
0.8505859375,0.048095703125,0.4351806640625,-0.4272460639476776,2.0751953125,24.353025436401367
0.868408203125,-0.0048828125,0.490966796875,4.2724609375,6.286620616912842,21.057126998901367
0.9603271484375,-0.09716796875,0.4739990234375,-0.0610351525247097,-0.6103515625,14.160155296325684
0.89990234375,-0.0379638671875,0.533203125,1.3427733182907104,-1.6479490995407104,7.446288585662842
0.944091796875,-0.026611328125,0.460693359375,-1.2817381620407104,-1.2817381620407104,2.929687261581421
0.9130859375,0.013427734375,0.43994140625,-6.530761241912842,-4.82177734375,-4.0283203125
0.85546875,0.0086669921875,0.459228515625,-4.69970703125,-4.2724609375,-5.981444835662842
0.847412109375,-0.0201416015625,0.420654296875,6.347655773162842,-1.3427733182907104,-3.967284917831421
0.8585205078125,-0.02880859375,0.3763427734375,8.30078125,-1.5258787870407104,-1.8920897245407104
0.8848876953125,-0.0184326171875,0.405029296875,0.6103515625,2.38037109375,-0.30517578125
0.8695068359375,-0.009033203125,0.45068359375,0.7934569716453552,3.662109136581421,-4.39453125
0.89453125,-0.046630859375,0.4237060546875,10.803221702575684,2.197265625,-2.746581792831421
0.8818359375,-0.0462646484375,0.452392578125,12.268065452575684,1.220703125,-2.990722417831421
0.873291015625,-0.0340576171875,0.4088134765625,13.916014671325684,1.3427733182907104,-3.601073980331421
0.8680419921875,-0.0260009765625,0.4090576171875,13.732909202575684,-0.6103515625,-1.4038084745407104
0.8189697265625,-0.0196533203125,0.413330078125,14.343260765075684,2.3193359375,2.563476324081421
0.8013916015625,-0.0404052734375,0.367919921875,13.916014671325684,3.417968511581421,7.141112804412842
0.76025390625,-0.02197265625,0.3895263671875,13.793944358825684,5.676269054412842,20.446775436401367
0.727783203125,-0.0206298828125,0.369140625,7.507323741912842,9.6435546875,33.3251953125
0.70263671875,-0.0350341796875,0.3385009765625,1.8310545682907104,10.009765625,38.87939453125
0.63525390625,-0.0267333984375,0.3638916015625,-8.23974609375,10.437010765075684,50.903316497802734
0.6031494140625,-0.0223388671875,0.3779296875,-5.493163585662842,15.869139671325684,67.87109375
0.63330078125,0.0120849609375,0.32958984375,-3.967284917831421,21.118162155151367,72.08251953125
0.7303466796875,-0.0040283203125,0.2862548828125,-9.033203125,18.310546875,76.47705078125
0.762451171875,0.0296630859375,0.3612060546875,-12.634276390075684,20.996091842651367,68.603515625
0.7947998046875,0.15771484375,0.3603515625,-16.845703125,23.742673873901367,64.208984375
0.87353515625,0.113037109375,0.3204345703125,-5.065917491912842,18.73779296875,62.805171966552734
0.8236083984375,0.1624755859375,0.3392333984375,-7.751464366912842,17.9443359375,56.030269622802734
0.8603515625,0.219482421875,0.302978515625,-3.417968511581421,15.624999046325684,49.682613372802734
0.9151611328125,0.239990234375,0.341796875,0.4272460639476776,5.187987804412842,47.180171966552734
0.751953125,0.290283203125,0.43310546875,0.0,10.192870140075684,37.353515625
0.9710693359375,0.21435546875,0.2720947265625,5.249022960662842,11.230467796325684,32.71484375
0.96875,0.2838134765625,0.36962890625,7.995604991912842,1.2817381620407104,32.8369140625
0.8929443359375,0.3563232421875,0.4354248046875,-7.629394054412842,8.36181640625,25.390623092651367
1.044189453125,0.2801513671875,0.268798828125,8.23974609375,15.869139671325684,17.15087890625
1.072509765625,0.2860107421875,0.3026123046875,7.080077648162842,9.33837890625,14.221190452575684
0.879150390625,0.3662109375,0.4765625,4.82177734375,13.122557640075684,13.916014671325684
0.92626953125,0.348876953125,0.37451171875,21.728513717651367,20.568845748901367,11.291502952575684
1.0509033203125,0.32275390625,0.2738037109375,35.400390625,17.333984375,13.000487327575684
0.95556640625,0.3839111328125,0.3682861328125,25.939939498901367,13.610838890075684,11.108397483825684
0.961181640625,0.45361328125,0.36865234375,19.10400390625,13.183592796325684,8.48388671875
1.0037841796875,0.3770751953125,0.31787109375,26.489255905151367,15.930174827575684,9.6435546875
0.98974609375,0.3797607421875,0.3067626953125,27.954099655151367,12.695311546325684,9.70458984375
0.939453125,0.4329833984375,0.34765625,17.02880859375,9.46044921875,8.30078125
0.9334716796875,0.428955078125,0.357177734375,13.610838890075684,8.60595703125,9.033203125
1.0123291015625,0.3843994140625,0.287353515625,11.474608421325684,6.408690929412842,9.033203125
0.9608154296875,0.42626953125,0.3240966796875,6.713866710662842,6.042479991912842,7.751464366912842
0.917236328125,0.440673828125,0.3358154296875,3.295898199081421,5.798339366912842,5.920409679412842
0.9384765625,0.3975830078125,0.2933349609375,9.46044921875,4.94384765625,6.042479991912842
0.9114990234375,0.4049072265625,0.3009033203125,14.770506858825684,3.967284917831421,4.8828125
0.87939453125,0.407958984375,0.29833984375,15.502928733825684,1.9531248807907104,0.1831054538488388
0.91845703125,0.40771484375,0.255859375,26.062009811401367,1.0986328125,1.6479490995407104
0.90380859375,0.41259765625,0.3040771484375,26.611326217651367,-1.0986328125,-1.7700194120407104
0.881103515625,0.4056396484375,0.334716796875,23.010251998901367,-1.220703125,-4.638671875
0.9190673828125,0.3885498046875,0.2958984375,26.855466842651367,-1.220703125,-4.82177734375
0.9453125,0.399658203125,0.2960205078125,21.911619186401367,-4.08935546875,-6.469726085662842
0.904296875,0.439453125,0.359375,10.131834983825684,-3.845214605331421,-8.36181640625
0.9481201171875,0.3951416015625,0.3133544921875,7.446288585662842,-3.845214605331421,-7.385253429412842
0.956787109375,0.3673095703125,0.308349609375,7.446288585662842,-5.310058116912842,-5.859374523162842
0.92529296875,0.39013671875,0.375732421875,1.8920897245407104,-4.638671875,-3.662109136581421
0.89208984375,0.3768310546875,0.400146484375,-3.112792730331421,-1.8920897245407104,-1.9531248807907104
0.929443359375,0.325927734375,0.3035888671875,-5.187987804412842,-1.5258787870407104,-1.6479490995407104
0.9088134765625,0.2840576171875,0.2979736328125,-9.33837890625,-4.33349609375,3.417968511581421
0.8572998046875,0.3564453125,0.3731689453125,-11.901854515075684,-1.5258787870407104,1.5869139432907104
0.8548583984375,0.32177734375,0.3331298828125,-8.1787109375,1.4648436307907104,-0.4272460639476776
0.87060546875,0.3328857421875,0.289794921875,-4.638671875,0.9155272841453552,-1.2817381620407104
0.869140625,0.3472900390625,0.294189453125,-2.44140625,-0.9765624403953552,-3.662109136581421
0.8612060546875,0.3455810546875,0.31396484375,-0.30517578125,-2.01416015625,-5.615233898162842
0.8623046875,0.3272705078125,0.3519287109375,2.01416015625,-1.4648436307907104,-4.8828125
0.87646484375,0.321533203125,0.3590087890625,3.417968511581421,-0.0610351525247097,-4.45556640625
0.894287109375,0.3271484375,0.3355712890625,5.371093273162842,1.4038084745407104,-3.906249761581421
0.8953857421875,0.343505859375,0.3416748046875,6.652831554412842,2.0751953125,-2.868652105331421
0.8895263671875,0.3489990234375,0.34033203125,1.0986328125,1.6479490995407104,-3.967284917831421
0.8848876953125,0.33349609375,0.3328857421875,-1.4648436307907104,0.9155272841453552,-4.69970703125
0.8919677734375,0.318359375,0.3275146484375,-1.03759765625,0.0,-2.685546636581421
0.879150390625,0.315673828125,0.336181640625,-2.197265625,-1.0986328125,-1.7700194120407104
0.870361328125,0.3023681640625,0.328369140625,-1.7089842557907104,-1.4648436307907104,-1.03759765625
0.8643798828125,0.3021240234375,0.328369140625,-0.3662109076976776,-1.7089842557907104,0.2441406100988388
0.869140625,0.318115234375,0.3397216796875,-0.4272460639476776,-0.4882812201976776,0.8544921278953552
0.874755859375,0.3223876953125,0.319580078125,-0.9765624403953552,-0.0610351525247097,-0.2441406100988388
0.880859375,0.3238525390625,0.313720703125,-0.2441406100988388,-0.1220703050494194,-0.54931640625
0.8826904296875,0.3236083984375,0.330322265625,-2.624511480331421,-0.7324218153953552,-0.1220703050494194
0.8697509765625,0.3287353515625,0.35400390625,-3.051757574081421,0.6713866591453552,-0.9765624403953552
0.8756103515625,0.320556640625,0.3380126953125,-1.4038084745407104,2.01416015625,-1.15966796875
0.88623046875,0.3223876953125,0.322021484375,0.9765624403953552,1.6479490995407104,0.0
0.8782958984375,0.335205078125,0.332763671875,0.6713866591453552,0.6103515625,-0.4882812201976776
0.8660888671875,0.331298828125,0.3448486328125,0.1831054538488388,0.4882812201976776,-1.2817381620407104
0.8702392578125,0.321533203125,0.3350830078125,0.8544921278953552,1.03759765625,-2.197265625
0.8819580078125,0.323486328125,0.3243408203125,1.6479490995407104,1.2817381620407104,-2.197265625
0.8758544921875,0.3228759765625,0.3240966796875,1.3427733182907104,0.9155272841453552,-3.173827886581421
0.876708984375,0.31787109375,0.322998046875,0.54931640625,0.1831054538488388,-3.723144292831421
0.8837890625,0.319091796875,0.326904296875,0.9765624403953552,-0.6103515625,-2.929687261581421
0.883056640625,0.31494140625,0.333251953125,0.54931640625,-1.0986328125,-3.234863042831421
0.8883056640625,0.3076171875,0.330810546875,1.03759765625,-1.220703125,-2.50244140625
0.89111328125,0.31640625,0.341796875,0.1220703050494194,-1.3427733182907104,-0.9155272841453552
0.8896484375,0.3204345703125,0.341064453125,-1.5258787870407104,-1.15966796875,-0.7934569716453552
0.8902587890625,0.3082275390625,0.3314208984375,-2.197265625,-1.220703125,-0.3662109076976776
1.35009765625,0.6982421875,0.53759765625,-62.622066497802734,25.390623092651367,20.385740280151367
1.5118408203125,0.7327880859375,0.4725341796875,-72.021484375,31.982419967651367,29.663084030151367
1.5589599609375,0.7486572265625,0.4677734375,-72.6318359375,36.376953125,33.99658203125
1.5589599609375,0.7159423828125,0.3709716796875,-64.39208984375,36.7431640625,32.89794921875
1.4974365234375,0.5792236328125,0.3458251953125,-45.166011810302734,32.16552734375,29.296873092651367
1.3419189453125,0.497802734375,0.358154296875,-31.616209030151367,25.512693405151367,13.488768577575684
1.1561279296875,0.34130859375,0.2596435546875,-5.371093273162842,18.12744140625,-4.8828125
1.0269775390625,0.296142578125,0.176513671875,9.27734375,-0.1220703050494194,-26.611326217651367
0.91845703125,0.361328125,0.0880126953125,20.874021530151367,-27.465818405151367,-51.696773529052734
0.654052734375,0.2152099609375,0.009033203125,38.4521484375,-42.480464935302734,-70.37353515625
0.50439453125,0.1075439453125,0.0042724609375,34.7900390625,-46.936031341552734,-103.33251190185547
0.3125,0.0736083984375,0.1446533203125,33.26416015625,-48.645015716552734,-111.20604705810547
0.153564453125,0.0426025390625,0.240234375,25.817869186401367,-42.602535247802734,-126.52587127685547
0.2833251953125,-0.0555419921875,0.161865234375,23.864744186401367,-36.07177734375,-132.8125
0.3104248046875,-0.105712890625,0.14013671875,17.27294921875,-38.02490234375,-114.37987518310547
0.26806640625,-0.0606689453125,0.2108154296875,7.263183116912842,-36.80419921875,-89.53856658935547
0.392822265625,-0.0206298828125,0.268798828125,0.6103515625,-23.254392623901367,-56.396480560302734
0.4993896484375,0.072021484375,0.29833984375,14.099120140075684,-8.9111328125,-23.925779342651367
0.7193603515625,0.1275634765625,0.3055419921875,20.446775436401367,0.30517578125,8.056640625
0.795654296875,0.131103515625,0.366943359375,4.2724609375,2.01416015625,20.629880905151367
0.79052734375,0.114013671875,0.3240966796875,18.798828125,8.48388671875,33.38623046875
0.9847412109375,0.023193359375,0.3133544921875,4.69970703125,-2.807616949081421,27.221677780151367
0.94921875,0.07275390625,0.4263916015625,-0.1831054538488388,-4.94384765625,13.427733421325684
0.9654541015625,0.0548095703125,0.451904296875,13.488768577575684,1.03759765625,8.36181640625
1.03076171875,0.03955078125,0.44189453125,3.601073980331421,-1.9531248807907104,0.0610351525247097
0.8819580078125,0.1064453125,0.4656982421875,4.69970703125,-2.3193359375,-6.103515148162842
0.9014892578125,0.0909423828125,0.3939208984375,12.390135765075684,-0.4272460639476776,-1.5869139432907104
0.9144287109375,0.0792236328125,0.35888671875,10.742186546325684,-1.6479490995407104,-0.3662109076976776
0.83837890625,0.0733642578125,0.3251953125,10.986327171325684,0.30517578125,-0.54931640625
0.8785400390625,0.068115234375,0.3017578125,7.446288585662842,-1.220703125,-0.2441406100988388
0.814208984375,0.0872802734375,0.366943359375,3.906249761581421,-0.3662109076976776,2.990722417831421
0.77392578125,0.0723876953125,0.3577880859375,4.7607421875,4.45556640625,10.253905296325684
0.748779296875,0.060546875,0.33251953125,5.676269054412842,4.638671875,16.357421875
0.7135009765625,0.0574951171875,0.3262939453125,11.047362327575684,6.042479991912842,29.174802780151367
0.711181640625,0.0743408203125,0.3089599609375,8.23974609375,8.7890625,38.4521484375
0.7135009765625,0.0762939453125,0.3115234375,0.30517578125,10.375975608825684,45.654293060302734
0.7093505859375,0.06787109375,0.3271484375,-6.896972179412842,15.563963890075684,50.476070404052734
0.7381591796875,0.0889892578125,0.3369140625,-15.624999046325684,16.6015625,55.480953216552734
0.708984375,0.092041015625,0.3856201171875,-16.4794921875,25.451658248901367,57.495113372802734
0.784423828125,0.1307373046875,0.3316650390625,-18.1884765625,33.63037109375,68.84765625
0.790771484375,0.218017578125,0.2806396484375,-14.587401390075684,31.005857467651367,55.358882904052734
0.829345703125,0.2764892578125,0.2734375,-30.700681686401367,32.16552734375,51.208492279052734
0.826416015625,0.2994384765625,0.2279052734375,-15.014647483825684,29.174802780151367,46.997066497802734
0.8968505859375,0.2470703125,0.2059326171875,-13.366698265075684,20.690916061401367,38.26904296875
0.84326171875,0.3084716796875,0.2781982421875,-16.4794921875,16.7236328125,32.1044921875
0.8846435546875,0.2713623046875,0.2874755859375,-7.751464366912842,17.15087890625,30.700681686401367
0.90283203125,0.2667236328125,0.3009033203125,-2.25830078125,15.747069358825684,30.700681686401367
0.83642578125,0.311767578125,0.31103515625,-2.25830078125,22.033689498901367,26.062009811401367
0.9569091796875,0.339599609375,0.2071533203125,11.047362327575684,24.047849655151367,27.160642623901367
0.96142578125,0.3585205078125,0.181884765625,5.798339366912842,18.12744140625,28.381345748901367
0.958984375,0.4481201171875,0.1949462890625,-5.432128429412842,18.06640625,22.033689498901367
1.01953125,0.4219970703125,0.142333984375,0.0610351525247097,14.770506858825684,19.8974609375
1.0107421875,0.409912109375,0.186767578125,-8.85009765625,10.375975608825684,15.014647483825684
0.9793701171875,0.4259033203125,0.2203369140625,-7.995604991912842,12.084959983825684,8.72802734375
1.0035400390625,0.459228515625,0.2188720703125,5.676269054412842,11.352538108825684,6.530761241912842
1.019775390625,0.4307861328125,0.185791015625,7.019042491912842,10.192870140075684,6.164550304412842
0.984375,0.4864501953125,0.1868896484375,16.2353515625,11.108397483825684,3.967284917831421
0.98974609375,0.5260009765625,0.1646728515625,20.874021530151367,7.263183116912842,2.685546636581421
1.0069580078125,0.5316162109375,0.0977783203125,25.817869186401367,-0.54931640625,1.5258787870407104
0.962646484375,0.525390625,0.148681640625,12.573241233825684,-7.568358898162842,-0.9155272841453552
0.96435546875,0.506103515625,0.180419921875,8.9111328125,-10.620116233825684,-4.39453125
0.985595703125,0.4693603515625,0.1829833984375,14.648436546325684,-9.09423828125,-5.249022960662842
0.9454345703125,0.4586181640625,0.211181640625,11.291502952575684,-5.981444835662842,-6.164550304412842
0.9178466796875,0.46923828125,0.18798828125,6.469726085662842,-5.554198741912842,-8.056640625
0.9237060546875,0.4473876953125,0.15234375,18.49365234375,-5.981444835662842,-8.1787109375
0.9072265625,0.4315185546875,0.156005859375,21.240232467651367,-10.681151390075684,-8.85009765625
0.8719482421875,0.462890625,0.1968994140625,20.324705123901367,-14.343260765075684,-11.352538108825684
0.8931884765625,0.41552734375,0.206298828125,22.766111373901367,-17.88330078125,-10.681151390075684
0.909912109375,0.3758544921875,0.234130859375,21.484373092651367,-20.01953125,-11.840819358825684
0.91455078125,0.40283203125,0.2935791015625,20.690916061401367,-16.41845703125,-9.8876953125
0.9072265625,0.398681640625,0.3306884765625,14.648436546325684,-10.986327171325684,-10.009765625
0.930419921875,0.38525390625,0.2750244140625,14.282225608825684,-7.446288585662842,-9.58251953125
0.9471435546875,0.3861083984375,0.2437744140625,15.258788108825684,-8.544921875,-7.995604991912842
0.9007568359375,0.4266357421875,0.30029296875,13.061522483825684,-8.30078125,-7.324218273162842
0.8961181640625,0.3897705078125,0.297607421875,11.230467796325684,-9.09423828125,-9.3994140625
0.9027099609375,0.3526611328125,0.286865234375,14.221190452575684,-10.375975608825684,-7.629394054412842
0.8743896484375,0.365234375,0.3587646484375,9.21630859375,-10.559081077575684,-6.896972179412842
0.88330078125,0.3565673828125,0.3621826171875,3.356933355331421,-7.812499523162842,-8.48388671875
0.903076171875,0.3477783203125,0.3382568359375,3.723144292831421,-5.493163585662842,-8.1787109375
0.893798828125,0.3446044921875,0.3519287109375,0.6103515625,-3.845214605331421,-6.225585460662842
0.889404296875,0.331787109375,0.3514404296875,-0.8544921278953552,-3.417968511581421,-4.94384765625
0.8822021484375,0.3389892578125,0.3333740234375,2.13623046875,-2.807616949081421,-5.065917491912842
0.8836669921875,0.3343505859375,0.3314208984375,1.5869139432907104,-2.990722417831421,-4.39453125
0.882568359375,0.335693359375,0.330322265625,3.295898199081421,-2.868652105331421,-4.21142578125
0.875732421875,0.32763671875,0.325927734375,2.685546636581421,-2.990722417831421,-4.5166015625
0.8778076171875,0.3255615234375,0.331787109375,-0.3662109076976776,-3.112792730331421,-4.94384765625
0.8790283203125,0.320556640625,0.3353271484375,-0.1220703050494194,-1.6479490995407104,-4.94384765625
0.873779296875,0.3150634765625,0.33447265625,-1.7089842557907104,-0.7324218153953552,-5.249022960662842
0.873046875,0.321044921875,0.3358154296875,-3.051757574081421,0.1220703050494194,-5.676269054412842
0.873046875,0.319091796875,0.3426513671875,-3.051757574081421,1.03759765625,-5.310058116912842
0.8863525390625,0.3214111328125,0.3292236328125,-1.8920897245407104,1.5869139432907104,-5.371093273162842
0.892578125,0.304931640625,0.3157958984375,-0.4272460639476776,0.9765624403953552,-5.676269054412842
0.8814697265625,0.313232421875,0.3392333984375,1.0986328125,0.8544921278953552,-5.310058116912842
0.8878173828125,0.319091796875,0.342529296875,1.9531248807907104,1.4038084745407104,-4.8828125
0.8939208984375,0.316650390625,0.3309326171875,3.173827886581421,1.2817381620407104,-4.08935546875
0.8948974609375,0.3095703125,0.3258056640625,2.685546636581421,0.7934569716453552,-3.540038824081421
0.8948974609375,0.3084716796875,0.3282470703125,1.5869139432907104,0.54931640625,-3.234863042831421
0.8909912109375,0.3133544921875,0.340576171875,-0.30517578125,0.7934569716453552,-2.685546636581421
0.8883056640625,0.3145751953125,0.3475341796875,-2.929687261581421,1.7089842557907104,-2.807616949081421
0.8951416015625,0.2965087890625,0.3179931640625,-2.563476324081421,2.746581792831421,-2.685546636581421
0.8983154296875,0.2945556640625,0.298828125,-0.4272460639476776,2.01416015625,-1.3427733182907104
0.891845703125,0.30908203125,0.3070068359375,1.4038084745407104,0.3662109076976776,-1.5869139432907104
0.8890380859375,0.3046875,0.3216552734375,1.5258787870407104,-0.7934569716453552,-2.38037109375
0.887939453125,0.28759765625,0.3326416015625,3.784179449081421,-1.15966796875,-1.7700194120407104
0.890869140625,0.282958984375,0.333740234375,4.94384765625,-1.03759765625,0.0
0.8948974609375,0.296142578125,0.3294677734375,4.33349609375,-1.220703125,0.1220703050494194
0.892822265625,0.301513671875,0.33447265625,0.3662109076976776,-1.7089842557907104,-0.54931640625
0.8875732421875,0.2969970703125,0.3428955078125,-2.197265625,-1.03759765625,-0.1220703050494194
0.890380859375,0.292236328125,0.3341064453125,-3.479003667831421,-0.4882812201976776,0.1831054538488388
0.893310546875,0.29150390625,0.31787109375,-3.051757574081421,-0.3662109076976776,-0.1220703050494194
0.8856201171875,0.2935791015625,0.32373046875,-1.6479490995407104,-0.6713866591453552,-0.0610351525247097
0.88134765625,0.29541015625,0.3348388671875,0.0610351525247097,-0.6103515625,0.2441406100988388
0.8837890625,0.2880859375,0.3251953125,2.13623046875,-0.9765624403953552,-0.2441406100988388
0.8851318359375,0.2913818359375,0.3360595703125,2.685546636581421,-0.9155272841453552,0.0
0.88427734375,0.2989501953125,0.3382568359375,0.0,0.4882812201976776,-0.6713866591453552
0.8917236328125,0.3046875,0.3321533203125,-1.03759765625,-0.1220703050494194,-0.7324218153953552
0.8887939453125,0.2972412109375,0.329345703125,-0.9155272841453552,-0.7934569716453552,-0.7324218153953552
1.4168701171875,0.6695556640625,0.5506591796875,-75.37841796875,17.88330078125,17.333984375
1.5267333984375,0.6856689453125,0.503173828125,-78.857421875,27.709959030151367,25.878904342651367
1.6024169921875,0.6263427734375,0.4300537109375,-79.52880859375,29.907224655151367,33.14208984375
1.5472412109375,0.6595458984375,0.4556884765625,-81.54296112060547,32.71484375,37.4755859375
1.43994140625,0.5584716796875,0.3951416015625,-73.6083984375,25.878904342651367,30.822751998901367
1.3424072265625,0.433837890625,0.32275390625,-59.082027435302734,15.563963890075684,21.850584030151367
1.172607421875,0.3642578125,0.29638671875,-49.865718841552734,3.356933355331421,4.21142578125
1.0111083984375,0.283447265625,0.196533203125,-34.423828125,-11.474608421325684,-17.08984375
0.8929443359375,0.266357421875,0.146728515625,-22.277830123901367,-29.052732467651367,-41.442867279052734
0.7882080078125,0.262939453125,0.134765625,-12.573241233825684,-43.334957122802734,-63.903804779052734
0.5733642578125,0.2080078125,0.1453857421875,18.61572265625,-51.330562591552734,-82.03124237060547
0.5013427734375,0.0928955078125,0.0379638671875,49.072261810302734,-50.659175872802734,-94.29930877685547
0.3306884765625,-0.0001220703125,0.0516357421875,25.878904342651367,-56.030269622802734,-111.93846893310547
0.26904296875,0.037353515625,0.0921630859375,12.268065452575684,-56.274410247802734,-134.33837890625
0.2147216796875,-0.0098876953125,0.114501953125,2.807616949081421,-45.349117279052734,-124.08446502685547
0.291748046875,0.02490234375,0.2105712890625,-23.010251998901367,-35.82763671875,-105.16356658935547
0.372314453125,0.05126953125,0.25146484375,-26.855466842651367,-21.240232467651367,-80.74950408935547
0.53076171875,0.0762939453125,0.2750244140625,-10.620116233825684,-8.36181640625,-41.198726654052734
0.6839599609375,0.1171875,0.28857421875,6.042479991912842,-1.220703125,-9.27734375
0.775390625,0.138427734375,0.24658203125,12.451170921325684,2.44140625,12.084959983825684
0.8408203125,0.1270751953125,0.2867431640625,0.1220703050494194,2.0751953125,24.658201217651367
0.9346923828125,0.1292724609375,0.31005859375,-8.9111328125,-1.15966796875,25.390623092651367
0.9803466796875,0.06982421875,0.35791015625,-11.169432640075684,-5.859374523162842,14.038084983825684
0.9835205078125,-0.0010986328125,0.3775634765625,-0.4882812201976776,-5.554198741912842,8.6669921875
0.98388671875,-0.008544921875,0.4111328125,0.1831054538488388,-3.112792730331421,4.21142578125
0.984619140625,0.0736083984375,0.4202880859375,-2.01416015625,-4.57763671875,-3.967284917831421
0.9189453125,0.115478515625,0.394287109375,7.812499523162842,-6.835937023162842,-9.82666015625
0.8818359375,0.1048583984375,0.3585205078125,6.286620616912842,-7.446288585662842,-10.070799827575684
0.810302734375,0.0919189453125,0.300537109375,11.535643577575684,-4.45556640625,-7.751464366912842
0.8427734375,0.061767578125,0.2796630859375,3.417968511581421,-7.202147960662842,-7.263183116912842
0.81103515625,0.0784912109375,0.3016357421875,8.544921875,-5.493163585662842,-1.6479490995407104
0.8385009765625,0.0689697265625,0.3341064453125,2.01416015625,-6.469726085662842,2.13623046875
0.7877197265625,0.0755615234375,0.391357421875,11.352538108825684,-3.112792730331421,12.207030296325684
0.7679443359375,0.0230712890625,0.3887939453125,17.578125,0.30517578125,23.681638717651367
0.7335205078125,0.036376953125,0.359130859375,22.583005905151367,4.33349609375,34.5458984375
0.8077392578125,0.0164794921875,0.2998046875,20.507810592651367,5.432128429412842,40.161128997802734
0.7117919921875,0.0421142578125,0.3311767578125,11.718749046325684,5.065917491912842,39.9169921875
0.7459716796875,0.0450439453125,0.3275146484375,12.329100608825684,10.070799827575684,47.546382904052734
0.8306884765625,0.0185546875,0.3287353515625,3.845214605331421,4.2724609375,45.349117279052734
0.73974609375,0.132080078125,0.445556640625,1.2817381620407104,3.234863042831421,45.715328216552734
0.724609375,0.1204833984375,0.447998046875,1.9531248807907104,13.549803733825684,57.922359466552734
0.8095703125,0.06591796875,0.3876953125,-3.417968511581421,17.7001953125,55.786128997802734
0.76904296875,0.1015625,0.3731689453125,-6.896972179412842,18.6767578125,51.391597747802734
0.8101806640625,0.142578125,0.36669921875,-8.60595703125,23.986814498901367,54.748531341552734
0.8560791015625,0.202880859375,0.33203125,1.9531248807907104,21.850584030151367,55.175777435302734
0.872314453125,0.2086181640625,0.3319091796875,-3.356933355331421,20.446775436401367,50.537105560302734
0.8817138671875,0.263671875,0.3123779296875,-11.352538108825684,22.094724655151367,38.39111328125
0.9344482421875,0.2467041015625,0.2861328125,0.4272460639476776,19.34814453125,37.109375
0.9102783203125,0.2760009765625,0.334716796875,-2.0751953125,17.2119140625,34.3017578125
0.937744140625,0.3228759765625,0.3486328125,-3.540038824081421,16.17431640625,33.02001953125
0.90283203125,0.344970703125,0.3677978515625,7.873534679412842,15.563963890075684,32.2265625
0.9317626953125,0.346435546875,0.328125,10.437010765075684,16.41845703125,31.249998092651367
0.9337158203125,0.37451171875,0.3067626953125,21.240232467651367,14.404295921325684,30.273435592651367
0.8868408203125,0.4383544921875,0.3045654296875,18.4326171875,12.817381858825684,23.254392623901367
0.970703125,0.4412841796875,0.2286376953125,21.240232467651367,8.48388671875,20.01953125
0.962158203125,0.4688720703125,0.2786865234375,16.845703125,1.7700194120407104,17.88330078125
0.88818359375,0.5133056640625,0.337646484375,6.408690929412842,2.197265625,7.141112804412842
0.9884033203125,0.46435546875,0.248779296875,20.690916061401367,-0.30517578125,7.446288585662842
0.913330078125,0.4615478515625,0.35205078125,9.765625,-3.784179449081421,5.310058116912842
0.8831787109375,0.507080078125,0.3787841796875,2.197265625,-0.6103515625,-0.8544921278953552
0.9520263671875,0.4332275390625,0.2977294921875,19.6533203125,0.1831054538488388,2.197265625
0.9742431640625,0.455810546875,0.2916259765625,16.2353515625,-4.45556640625,2.25830078125
0.8897705078125,0.54931640625,0.3765869140625,17.7001953125,-5.371093273162842,0.9765624403953552
0.929443359375,0.479248046875,0.3250732421875,30.517576217651367,-3.601073980331421,2.868652105331421
0.9395751953125,0.4266357421875,0.3094482421875,34.423828125,-6.408690929412842,3.417968511581421
0.8843994140625,0.4853515625,0.38720703125,31.066892623901367,-3.112792730331421,2.807616949081421
0.9046630859375,0.4495849609375,0.35498046875,31.188962936401367,0.7934569716453552,-1.220703125
0.9027099609375,0.4013671875,0.3255615234375,35.2783203125,3.051757574081421,-2.929687261581421
0.8570556640625,0.4312744140625,0.40087890625,29.479978561401367,4.0283203125,-4.7607421875
0.847900390625,0.4359130859375,0.400146484375,24.963376998901367,5.432128429412842,-7.568358898162842
0.8831787109375,0.40576171875,0.3421630859375,24.230955123901367,7.385253429412842,-10.314940452575684
0.8875732421875,0.3817138671875,0.3115234375,17.63916015625,2.197265625,-10.620116233825684
0.86962890625,0.4437255859375,0.3621826171875,7.751464366912842,-1.8310545682907104,-12.634276390075684
0.861328125,0.41845703125,0.36767578125,-0.8544921278953552,-3.845214605331421,-16.11328125
0.8907470703125,0.370361328125,0.320556640625,-1.15966796875,-7.080077648162842,-17.822265625
0.9027099609375,0.3548583984375,0.361083984375,-10.253905296325684,-11.657713890075684,-18.12744140625
0.8839111328125,0.3773193359375,0.4080810546875,-17.7001953125,-10.009765625,-16.41845703125
0.889892578125,0.3297119140625,0.3995361328125,-16.357421875,-6.347655773162842,-15.197752952575684
0.900146484375,0.3040771484375,0.373291015625,-14.709471702575684,-5.126952648162842,-13.122557640075684
0.8841552734375,0.34912109375,0.37109375,-13.916014671325684,-4.2724609375,-12.451170921325684
0.87744140625,0.3275146484375,0.3658447265625,-9.27734375,-3.112792730331421,-11.535643577575684
0.8756103515625,0.3150634765625,0.3602294921875,-2.3193359375,-2.44140625,-10.620116233825684
0.888671875,0.315673828125,0.349609375,0.6713866591453552,-3.906249761581421,-9.94873046875
0.875244140625,0.3280029296875,0.3721923828125,3.234863042831421,-4.150390625,-9.58251953125
0.87158203125,0.310546875,0.393310546875,2.44140625,-3.051757574081421,-9.27734375
0.8731689453125,0.3145751953125,0.407958984375,0.7324218153953552,-0.9155272841453552,-9.033203125
0.879150390625,0.2877197265625,0.370849609375,-0.9155272841453552,-0.1831054538488388,-9.09423828125
0.8837890625,0.29736328125,0.359130859375,0.0610351525247097,-0.4272460639476776,-7.934569835662842
0.875,0.30419921875,0.3837890625,-1.8920897245407104,-0.8544921278953552,-7.263183116912842
0.87255859375,0.293212890625,0.390380859375,-3.051757574081421,-0.7934569716453552,-6.469726085662842
0.881591796875,0.265625,0.36962890625,0.54931640625,-1.0986328125,-5.126952648162842
0.8787841796875,0.2469482421875,0.372314453125,3.295898199081421,-1.4648436307907104,-1.8920897245407104
0.8673095703125,0.275390625,0.3980712890625,4.94384765625,-0.30517578125,0.2441406100988388
0.8759765625,0.2803955078125,0.3858642578125,4.0283203125,0.6103515625,0.0610351525247097
0.8922119140625,0.2703857421875,0.3565673828125,3.967284917831421,0.6713866591453552,0.7324218153953552
0.888671875,0.2750244140625,0.3583984375,2.563476324081421,-0.0610351525247097,1.7089842557907104
0.8809814453125,0.2943115234375,0.3892822265625,0.4272460639476776,1.03759765625,0.7324218153953552
0.8795166015625,0.2989501953125,0.3802490234375,-2.01416015625,3.173827886581421,-0.2441406100988388
0.8856201171875,0.29296875,0.357177734375,-1.8310545682907104,3.356933355331421,-0.30517578125
0.886962890625,0.2911376953125,0.3492431640625,-0.3662109076976776,2.3193359375,-1.7700194120407104
0.8831787109375,0.3037109375,0.3656005859375,-0.0610351525247097,0.8544921278953552,-2.868652105331421
0.8809814453125,0.29736328125,0.3736572265625,1.03759765625,0.4272460639476776,-3.051757574081421
0.8797607421875,0.281982421875,0.3770751953125,2.3193359375,0.30517578125,-2.990722417831421
0.8653564453125,0.2740478515625,0.3900146484375,2.624511480331421,0.30517578125,-2.624511480331421
0.86083984375,0.2742919921875,0.3875732421875,2.746581792831421,-0.0610351525247097,-3.112792730331421
0.86572265625,0.28125,0.3778076171875,1.8310545682907104,-1.7089842557907104,-3.295898199081421
0.8682861328125,0.283203125,0.3818359375,-0.9155272841453552,-3.662109136581421,-4.08935546875
0.8729248046875,0.2718505859375,0.3812255859375,-3.112792730331421,-4.8828125,-4.94384765625
0.871826171875,0.2613525390625,0.3792724609375,-2.746581792831421,-5.187987804412842,-4.45556640625
0.875,0.2596435546875,0.3778076171875,-1.4648436307907104,-4.69970703125,-3.540038824081421
0.8736572265625,0.2633056640625,0.377197265625,0.0610351525247097,-3.784179449081421,-3.112792730331421
0.8717041015625,0.2568359375,0.374755859375,1.8920897245407104,-2.563476324081421,-2.746581792831421
0.880126953125,0.2596435546875,0.3714599609375,3.417968511581421,-1.4648436307907104,-2.13623046875
0.880615234375,0.26025390625,0.3717041015625,4.57763671875,-0.4272460639476776,-1.4648436307907104
0.8782958984375,0.264892578125,0.385498046875,4.45556640625,-0.0610351525247097,-1.3427733182907104
0.8753662109375,0.2659912109375,0.404541015625,3.417968511581421,0.1831054538488388,-0.8544921278953552
0.8741455078125,0.2723388671875,0.4112548828125,1.0986328125,0.9765624403953552,-1.3427733182907104
0.88671875,0.267333984375,0.3843994140625,-0.1220703050494194,0.4272460639476776,-2.01416015625
0.879150390625,0.2657470703125,0.3887939453125,-1.220703125,-0.2441406100988388,-1.5258787870407104
1.4417724609375,0.6630859375,0.5814208984375,-66.46728515625,27.465818405151367,31.066892623901367
1.4599609375,0.7041015625,0.525146484375,-67.138671875,36.31591796875,35.70556640625
1.55810546875,0.617919921875,0.335205078125,-59.997554779052734,37.353515625,39.9169921875
1.5809326171875,0.682373046875,0.3779296875,-54.138179779052734,33.69140625,40.710445404052734
1.4102783203125,0.522705078125,0.349853515625,-48.217769622802734,31.433103561401367,31.249998092651367
1.378662109375,0.400390625,0.2294921875,-26.550291061401367,24.108884811401367,15.502928733825684
1.3609619140625,0.425537109375,0.2071533203125,-15.808104515075684,9.21630859375,-5.249022960662842
1.1317138671875,0.45947265625,0.201904296875,-22.338865280151367,-10.742186546325684,-40.588375091552734
0.9288330078125,0.2586669921875,0.1539306640625,-16.357421875,-34.423828125,-72.44873046875
0.71923828125,0.1856689453125,0.1695556640625,4.5166015625,-48.217769622802734,-87.28026580810547
0.5582275390625,0.14111328125,0.222412109375,43.823238372802734,-60.302730560302734,-105.89598846435547
0.2513427734375,0.0478515625,0.1983642578125,70.37353515625,-50.842281341552734,-128.72314453125
0.05029296875,-0.0889892578125,0.1253662109375,47.363277435302734,-57.983394622802734,-142.08984375
0.13623046875,-0.2022705078125,0.0909423828125,8.23974609375,-65.61279296875,-153.3203125
0.0418701171875,-0.09375,0.1822509765625,4.638671875,-55.236812591552734,-135.92529296875
0.2171630859375,-0.0877685546875,0.2041015625,5.187987804412842,-38.57421875,-88.80614471435547
0.386962890625,-0.0408935546875,0.265380859375,-5.0048828125,-24.414060592651367,-50.170894622802734
0.60302734375,0.10986328125,0.3392333984375,24.108884811401367,-5.310058116912842,-6.652831554412842
0.7374267578125,0.075927734375,0.3470458984375,22.766111373901367,-2.44140625,9.82666015625
0.828125,0.0028076171875,0.3785400390625,10.192870140075684,-6.835937023162842,16.6015625
0.8673095703125,-0.0196533203125,0.44189453125,7.812499523162842,-7.995604991912842,17.4560546875
0.900390625,-0.0567626953125,0.4521484375,6.042479991912842,-8.056640625,16.90673828125
0.92431640625,-0.06494140625,0.5179443359375,-13.305663108825684,-12.573241233825684,9.765625
0.832763671875,0.0098876953125,0.551025390625,-14.282225608825684,-10.803221702575684,3.601073980331421
0.824951171875,-0.021484375,0.48291015625,-4.33349609375,-8.4228515625,7.568358898162842
0.800048828125,-0.032958984375,0.4478759765625,-9.3994140625,-7.690429210662842,13.488768577575684
0.704833984375,0.0152587890625,0.425048828125,-0.9155272841453552,-2.13623046875,23.010251998901367
0.6981201171875,-0.001708984375,0.37841796875,8.36181640625,3.295898199081421,35.0341796875
0.6739501953125,-0.0064697265625,0.37060546875,7.263183116912842,6.835937023162842,44.494625091552734
0.6597900390625,-0.00390625,0.393310546875,10.314940452575684,9.033203125,55.175777435302734
0.6075439453125,0.0272216796875,0.4403076171875,12.695311546325684,17.4560546875,62.255855560302734
0.6807861328125,-0.0057373046875,0.4090576171875,10.742186546325684,22.583005905151367,68.29833984375
0.7225341796875,0.0206298828125,0.408447265625,14.831542015075684,18.1884765625,69.27490234375
0.7216796875,0.09619140625,0.4320068359375,12.084959983825684,20.080564498901367,72.3876953125
0.8072509765625,0.0958251953125,0.416748046875,5.493163585662842,18.1884765625,68.359375
0.8369140625,0.154052734375,0.4141845703125,-9.3994140625,17.51708984375,58.288570404052734
0.8780517578125,0.20849609375,0.3983154296875,-17.76123046875,17.9443359375,52.673336029052734
0.954345703125,0.2452392578125,0.39404296875,-17.88330078125,10.070799827575684,42.480464935302734
0.8782958984375,0.27001953125,0.4486083984375,-21.179197311401367,5.187987804412842,38.2080078125
0.8802490234375,0.2822265625,0.4136962890625,-21.606443405151367,6.896972179412842,37.53662109375
0.96875,0.2518310546875,0.38232421875,-10.314940452575684,0.3662109076976776,33.50830078125
0.83447265625,0.2955322265625,0.4488525390625,-13.854979515075684,2.01416015625,24.536130905151367
0.8968505859375,0.309814453125,0.3839111328125,-2.0751953125,6.286620616912842,19.775390625
0.899169921875,0.266845703125,0.3704833984375,13.183592796325684,2.197265625,20.507810592651367
0.8526611328125,0.3377685546875,0.417236328125,4.21142578125,4.33349609375,15.319823265075684
0.919677734375,0.3397216796875,0.372802734375,17.2119140625,6.286620616912842,11.535643577575684
0.923095703125,0.32177734375,0.4080810546875,14.587401390075684,0.1831054538488388,13.793944358825684
0.82470703125,0.3800048828125,0.4619140625,2.0751953125,2.3193359375,8.1787109375
0.8841552734375,0.340576171875,0.397216796875,10.498045921325684,7.873534679412842,4.7607421875
0.9197998046875,0.3035888671875,0.3543701171875,13.366698265075684,4.45556640625,3.112792730331421
0.8460693359375,0.40576171875,0.4495849609375,4.45556640625,2.807616949081421,2.01416015625
0.8941650390625,0.38037109375,0.4224853515625,5.371093273162842,2.38037109375,-1.5258787870407104
0.9837646484375,0.3525390625,0.3638916015625,13.977049827575684,-0.3662109076976776,-3.906249761581421
0.9130859375,0.3577880859375,0.448974609375,11.535643577575684,-2.25830078125,-5.065917491912842
0.9036865234375,0.3663330078125,0.477294921875,2.01416015625,-3.173827886581421,-6.896972179412842
0.971923828125,0.3424072265625,0.426025390625,1.0986328125,-1.8310545682907104,-7.263183116912842
0.946533203125,0.3348388671875,0.4039306640625,5.432128429412842,-2.990722417831421,-6.652831554412842
0.8951416015625,0.37255859375,0.4403076171875,-4.2724609375,-4.94384765625,-8.36181640625
0.90185546875,0.348388671875,0.43017578125,-4.150390625,-5.371093273162842,-7.812499523162842
0.912841796875,0.3319091796875,0.40380859375,7.385253429412842,-7.141112804412842,-6.896972179412842
0.9052734375,0.3280029296875,0.4091796875,10.681151390075684,-8.30078125,-5.310058116912842
0.8619384765625,0.3460693359375,0.4476318359375,9.27734375,-10.253905296325684,-5.737304210662842
0.8868408203125,0.3238525390625,0.4183349609375,17.63916015625,-10.559081077575684,-5.432128429412842
0.907958984375,0.298828125,0.3863525390625,28.930662155151367,-13.244627952575684,-2.990722417831421
0.8514404296875,0.3197021484375,0.4373779296875,23.498533248901367,-16.66259765625,-5.676269054412842
0.83154296875,0.306640625,0.443603515625,24.291990280151367,-17.39501953125,-7.995604991912842
0.8743896484375,0.28173828125,0.4384765625,32.53173828125,-19.6533203125,-6.103515148162842
0.8516845703125,0.314697265625,0.4830322265625,24.658201217651367,-21.850584030151367,-10.498045921325684
0.8468017578125,0.302978515625,0.4825439453125,17.63916015625,-20.01953125,-13.793944358825684
0.8721923828125,0.248291015625,0.4755859375,17.76123046875,-20.629880905151367,-15.808104515075684
0.8482666015625,0.219970703125,0.5172119140625,4.57763671875,-21.179197311401367,-15.686034202575684
0.8021240234375,0.2471923828125,0.57470703125,2.01416015625,-16.9677734375,-17.39501953125
0.8302001953125,0.20556640625,0.541015625,10.314940452575684,-13.366698265075684,-16.90673828125
0.8436279296875,0.1888427734375,0.5247802734375,9.6435546875,-14.160155296325684,-15.686034202575684
0.8287353515625,0.220458984375,0.562255859375,5.432128429412842,-12.939452171325684,-15.686034202575684
0.8355712890625,0.2327880859375,0.5885009765625,6.286620616912842,-8.11767578125,-16.11328125
0.8729248046875,0.1998291015625,0.5478515625,9.8876953125,-5.798339366912842,-15.014647483825684
0.87060546875,0.1865234375,0.545654296875,8.1787109375,-6.469726085662842,-14.099120140075684
0.8411865234375,0.210693359375,0.594482421875,10.437010765075684,-3.295898199081421,-12.023924827575684
0.8560791015625,0.1929931640625,0.5767822265625,10.803221702575684,-1.4648436307907104,-9.765625
0.8599853515625,0.175048828125,0.5606689453125,9.46044921875,-1.5869139432907104,-8.1787109375
0.8438720703125,0.1646728515625,0.574462890625,5.065917491912842,-1.5869139432907104,-7.324218273162842
0.82861328125,0.15185546875,0.588134765625,1.6479490995407104,-0.1831054538488388,-5.310058116912842
0.822509765625,0.138671875,0.5802001953125,0.6103515625,1.3427733182907104,-2.624511480331421
0.8226318359375,0.146240234375,0.553466796875,-2.13623046875,1.9531248807907104,-1.8310545682907104
0.824462890625,0.1468505859375,0.5362548828125,-3.845214605331421,1.6479490995407104,-2.38037109375
0.8046875,0.1397705078125,0.552001953125,-4.69970703125,1.5258787870407104,-2.197265625
0.802978515625,0.1248779296875,0.5601806640625,-4.150390625,2.685546636581421,-1.4648436307907104
0.81640625,0.1246337890625,0.538818359375,-0.7324218153953552,3.295898199081421,-0.4882812201976776
0.8184814453125,0.1436767578125,0.539794921875,2.746581792831421,3.051757574081421,-0.0610351525247097
0.8179931640625,0.1480712890625,0.54052734375,6.713866710662842,2.746581792831421,0.2441406100988388
0.827392578125,0.1517333984375,0.53759765625,6.042479991912842,1.2817381620407104,0.9155272841453552
0.8309326171875,0.1495361328125,0.5455322265625,3.173827886581421,-0.3662109076976776,1.03759765625
0.8243408203125,0.1519775390625,0.5638427734375,1.4648436307907104,-0.6103515625,1.03759765625
0.8182373046875,0.1529541015625,0.56884765625,0.1831054538488388,-0.3662109076976776,0.9765624403953552
0.8155517578125,0.14013671875,0.5596923828125,-0.4272460639476776,0.3662109076976776,2.44140625
0.821044921875,0.1533203125,0.5465087890625,-0.6713866591453552,0.7934569716453552,2.563476324081421
0.80810546875,0.151123046875,0.5357666015625,-1.7089842557907104,0.4272460639476776,1.4038084745407104
0.804443359375,0.146484375,0.5343017578125,-1.3427733182907104,-0.4272460639476776,0.7934569716453552
0.8096923828125,0.1307373046875,0.5345458984375,1.220703125,-1.220703125,0.7324218153953552
0.8038330078125,0.146484375,0.5614013671875,3.723144292831421,-0.9765624403953552,0.1220703050494194
0.8123779296875,0.1427001953125,0.546142578125,4.08935546875,-0.3662109076976776,0.3662109076976776
0.8140869140625,0.148193359375,0.5472412109375,0.9765624403953552,-0.7324218153953552,-1.0986328125
0.8170166015625,0.1451416015625,0.5517578125,0.8544921278953552,-0.4882812201976776,-0.9765624403953552
0.808837890625,0.1510009765625,0.564453125,-1.3427733182907104,-0.3662109076976776,-1.5258787870407104
0.8153076171875,0.142578125,0.55029296875,-1.4648436307907104,-0.54931640625,-1.5869139432907104
0.8062744140625,0.1490478515625,0.559326171875,-0.4272460639476776,-0.7324218153953552,-1.0986328125
0.8101806640625,0.1414794921875,0.5469970703125,0.4882812201976776,-1.15966796875,-1.2817381620407104
0.8072509765625,0.141357421875,0.5499267578125,0.9765624403953552,-1.5258787870407104,-0.9155272841453552
0.807861328125,0.14453125,0.5545654296875,0.1831054538488388,-1.9531248807907104,-1.03759765625
0.806640625,0.1414794921875,0.5570068359375,0.6103515625,-1.7089842557907104,-0.9765624403953552
0.811767578125,0.1361083984375,0.5645751953125,0.0610351525247097,-0.6103515625,-0.7934569716453552
0.82080078125,0.14208984375,0.5543212890625,-0.9155272841453552,0.8544921278953552,-1.0986328125
0.821533203125,0.148681640625,0.550537109375,-1.7089842557907104,0.9765624403953552,-0.9765624403953552
0.816650390625,0.1407470703125,0.5572509765625,-1.03759765625,0.9155272841453552,-0.30517578125
0.812744140625,0.1395263671875,0.5611572265625,0.6103515625,1.2817381620407104,0.0610351525247097
0.81201171875,0.1407470703125,0.5565185546875,1.5869139432907104,0.9765624403953552,0.4272460639476776
0.8095703125,0.1439208984375,0.55224609375,1.8920897245407104,0.54931640625,0.9155272841453552
0.8092041015625,0.1448974609375,0.555908203125,2.13623046875,0.2441406100988388,0.9765624403953552
1.436767578125,0.4769287109375,0.778076171875,-82.27538299560547,42.236324310302734,28.503416061401367
1.59033203125,0.6639404296875,0.80517578125,-100.70800018310547,55.358882904052734,39.61181640625
1.6962890625,0.6397705078125,0.6605224609375,-98.69384002685547,63.537593841552734,40.832515716552734
1.7271728515625,0.60791015625,0.608154296875,-94.60448455810547,59.509273529052734,43.823238372802734
1.553955078125,0.5531005859375,0.64794921875,-93.81102752685547,48.034664154052734,26.794431686401367
1.3753662109375,0.38720703125,0.52978515625,-71.044921875,36.19384765625,3.906249761581421
1.1734619140625,0.1748046875,0.40625,-44.128414154052734,15.319823265075684,-19.287109375
0.877685546875,0.150390625,0.387939453125,-21.667478561401367,-6.652831554412842,-45.532222747802734
0.6455078125,0.11328125,0.2733154296875,10.498045921325684,-27.282712936401367,-69.2138671875
0.5245361328125,0.0677490234375,0.08349609375,35.5224609375,-45.104976654052734,-87.95165252685547
0.2315673828125,0.0543212890625,0.115234375,34.36279296875,-58.044429779052734,-114.99022674560547
-0.0439453125,0.038330078125,0.1796875,27.282712936401367,-57.739253997802734,-129.638671875
-0.0531005859375,-0.0771484375,0.170166015625,18.4326171875,-50.781246185302734,-135.986328125
0.1253662109375,-0.1490478515625,0.065673828125,2.746581792831421,-52.307125091552734,-110.59569549560547
0.214599609375,0.00048828125,0.2452392578125,-23.193357467651367,-43.823238372802734,-94.48241424560547
0.40283203125,-0.0428466796875,0.2579345703125,-18.5546875,-21.789548873901367,-41.259761810302734
0.5645751953125,0.118408203125,0.3983154296875,6.774901866912842,-6.835937023162842,-11.169432640075684
0.7542724609375,0.1097412109375,0.401123046875,13.061522483825684,6.286620616912842,8.4228515625
0.8153076171875,0.0152587890625,0.4158935546875,-2.13623046875,2.868652105331421,17.7001953125
0.85107421875,0.0653076171875,0.460693359375,-6.652831554412842,3.540038824081421,23.986814498901367
0.865234375,0.0655517578125,0.471435546875,-12.145995140075684,4.08935546875,19.8974609375
0.895751953125,0.0517578125,0.437255859375,-15.441893577575684,-1.220703125,14.831542015075684
0.886962890625,0.114013671875,0.5162353515625,-18.5546875,-4.33349609375,7.324218273162842
0.8248291015625,0.075439453125,0.49267578125,-6.347655773162842,-0.9155272841453552,0.9765624403953552
0.8873291015625,0.0445556640625,0.4073486328125,-4.7607421875,-4.69970703125,-1.3427733182907104
0.8653564453125,0.1029052734375,0.4677734375,-9.70458984375,-7.690429210662842,-2.990722417831421
0.79296875,0.1097412109375,0.4638671875,-2.563476324081421,-3.356933355331421,-4.94384765625
0.89013671875,0.033203125,0.407470703125,0.9155272841453552,-2.807616949081421,-4.08935546875
0.8699951171875,0.0601806640625,0.46630859375,-17.02880859375,-6.958007335662842,-7.019042491912842
0.78466796875,0.0924072265625,0.505615234375,-13.916014671325684,0.7934569716453552,-6.958007335662842
0.8167724609375,0.0509033203125,0.42724609375,4.7607421875,1.6479490995407104,1.2817381620407104
0.7403564453125,0.051513671875,0.4398193359375,4.21142578125,3.051757574081421,8.30078125
0.6650390625,0.0723876953125,0.3984375,11.169432640075684,12.512206077575684,18.61572265625
0.67822265625,0.0352783203125,0.3466796875,14.831542015075684,16.9677734375,31.677244186401367
0.622314453125,0.02978515625,0.3582763671875,15.930174827575684,20.629880905151367,43.518062591552734
0.6187744140625,0.0411376953125,0.3807373046875,10.314940452575684,24.963376998901367,53.649898529052734
0.5458984375,0.0225830078125,0.392333984375,16.9677734375,33.50830078125,62.377925872802734
0.63671875,-0.0162353515625,0.3402099609375,20.446775436401367,37.4755859375,76.0498046875
0.6666259765625,0.003662109375,0.3282470703125,14.099120140075684,33.935546875,69.27490234375
0.6763916015625,0.0902099609375,0.4376220703125,10.742186546325684,42.114253997802734,70.61767578125
0.7979736328125,0.17919921875,0.3763427734375,16.845703125,38.63525390625,65.24658203125
0.9183349609375,0.2139892578125,0.2958984375,18.00537109375,31.921384811401367,61.828609466552734
0.9246826171875,0.2626953125,0.318115234375,-3.234863042831421,27.526853561401367,44.067378997802734
0.9527587890625,0.318603515625,0.3623046875,-11.108397483825684,21.301267623901367,37.59765625
0.935546875,0.2713623046875,0.3905029296875,-18.06640625,19.8974609375,29.541013717651367
1.019775390625,0.271240234375,0.3267822265625,3.967284917831421,15.502928733825684,25.268552780151367
1.0225830078125,0.3109130859375,0.3468017578125,19.83642578125,6.835937023162842,33.69140625
0.877685546875,0.3592529296875,0.4344482421875,-1.03759765625,10.375975608825684,18.798828125
1.03662109375,0.3267822265625,0.2939453125,9.6435546875,10.803221702575684,17.51708984375
0.9949951171875,0.3785400390625,0.3587646484375,14.404295921325684,7.690429210662842,18.00537109375
0.9840087890625,0.4383544921875,0.3529052734375,10.070799827575684,12.390135765075684,7.202147960662842
1.0469970703125,0.3709716796875,0.2564697265625,18.798828125,9.765625,4.8828125
1.0001220703125,0.4290771484375,0.3233642578125,11.962889671325684,2.01416015625,3.479003667831421
0.9500732421875,0.4537353515625,0.3717041015625,8.97216796875,1.03759765625,1.7700194120407104
1.003662109375,0.3841552734375,0.279541015625,16.41845703125,0.8544921278953552,0.4882812201976776
0.9742431640625,0.4122314453125,0.34228515625,25.573728561401367,-4.69970703125,3.112792730331421
0.9366455078125,0.4415283203125,0.3905029296875,13.488768577575684,-8.30078125,-0.54931640625
0.94287109375,0.3946533203125,0.344482421875,19.34814453125,-6.408690929412842,-0.7324218153953552
0.962158203125,0.361083984375,0.3018798828125,22.766111373901367,-8.30078125,-1.220703125
0.916015625,0.4267578125,0.3736572265625,15.136717796325684,-9.58251953125,-1.4038084745407104
0.9029541015625,0.3824462890625,0.3511962890625,22.277830123901367,-8.056640625,-2.685546636581421
0.9246826171875,0.3564453125,0.3175048828125,36.43798828125,-10.925292015075684,-0.1831054538488388
0.9111328125,0.3955078125,0.391357421875,28.015134811401367,-14.099120140075684,-1.8920897245407104
0.87646484375,0.3603515625,0.3922119140625,26.794431686401367,-12.023924827575684,-5.371093273162842
0.9110107421875,0.3096923828125,0.345947265625,37.04833984375,-9.94873046875,-3.234863042831421
0.8927001953125,0.332763671875,0.4102783203125,28.991697311401367,-13.244627952575684,-1.4038084745407104
0.87060546875,0.3582763671875,0.43798828125,26.977537155151367,-11.901854515075684,-5.554198741912842
0.892578125,0.305908203125,0.376708984375,31.372068405151367,-12.145995140075684,-8.36181640625
0.8975830078125,0.3349609375,0.427978515625,22.460935592651367,-13.671874046325684,-8.7890625
0.8916015625,0.3441162109375,0.438720703125,13.610838890075684,-10.864256858825684,-13.671874046325684
0.90625,0.2952880859375,0.42333984375,12.756346702575684,-9.58251953125,-13.427733421325684
0.908203125,0.30517578125,0.4581298828125,10.864256858825684,-9.82666015625,-11.230467796325684
0.8924560546875,0.306640625,0.486083984375,5.310058116912842,-6.958007335662842,-13.000487327575684
0.8983154296875,0.2611083984375,0.4736328125,5.676269054412842,-2.746581792831421,-11.962889671325684
0.880615234375,0.2435302734375,0.5128173828125,7.080077648162842,0.4882812201976776,-7.202147960662842
0.869873046875,0.25341796875,0.5025634765625,10.498045921325684,4.45556640625,-5.187987804412842
0.8668212890625,0.2425537109375,0.4451904296875,14.160155296325684,5.798339366912842,-4.0283203125
0.8619384765625,0.2354736328125,0.4158935546875,9.82666015625,3.967284917831421,-3.540038824081421
0.8470458984375,0.249755859375,0.4437255859375,-0.6103515625,1.8920897245407104,-4.5166015625
0.83984375,0.2115478515625,0.4688720703125,-5.432128429412842,1.15966796875,-4.82177734375
0.849853515625,0.2005615234375,0.462890625,-3.784179449081421,1.6479490995407104,-2.868652105331421
0.8597412109375,0.2100830078125,0.4510498046875,-3.479003667831421,1.5258787870407104,-1.7089842557907104
0.85888671875,0.235107421875,0.4610595703125,-3.784179449081421,1.5869139432907104,-1.7700194120407104
0.863525390625,0.2347412109375,0.4599609375,-1.9531248807907104,1.5258787870407104,-1.5869139432907104
0.86669921875,0.2291259765625,0.443603515625,1.7700194120407104,1.0986328125,-1.2817381620407104
0.8648681640625,0.23681640625,0.4437255859375,0.3662109076976776,-0.2441406100988388,-2.197265625
0.858642578125,0.232666015625,0.4473876953125,1.15966796875,-0.6103515625,-2.746581792831421
0.852783203125,0.220947265625,0.4564208984375,0.0,-0.30517578125,-3.540038824081421
0.848876953125,0.216064453125,0.46044921875,0.9155272841453552,0.0,-3.540038824081421
0.8507080078125,0.210693359375,0.43994140625,0.4882812201976776,0.1831054538488388,-3.540038824081421
0.8509521484375,0.2249755859375,0.46337890625,-0.30517578125,-0.1220703050494194,-3.112792730331421
0.8687744140625,0.2012939453125,0.4351806640625,1.2817381620407104,-0.30517578125,-2.13623046875
0.8623046875,0.2288818359375,0.455078125,-1.7700194120407104,-1.3427733182907104,-2.807616949081421
0.8544921875,0.202880859375,0.468017578125,-2.13623046875,0.3662109076976776,-2.807616949081421
0.8681640625,0.199951171875,0.447265625,-0.1831054538488388,1.03759765625,-1.5258787870407104
0.8729248046875,0.213134765625,0.4306640625,1.8920897245407104,1.15966796875,-1.03759765625
0.8597412109375,0.236572265625,0.439697265625,-0.9765624403953552,-0.2441406100988388,-2.50244140625
0.8548583984375,0.21337890625,0.447509765625,-2.01416015625,-1.03759765625,-2.624511480331421
0.8599853515625,0.2059326171875,0.44970703125,-0.7324218153953552,-1.3427733182907104,-2.685546636581421
0.864013671875,0.2098388671875,0.449951171875,-0.9765624403953552,-1.5258787870407104,-2.868652105331421
0.8648681640625,0.2183837890625,0.45361328125,-1.5869139432907104,-1.220703125,-3.356933355331421
0.861328125,0.2164306640625,0.4495849609375,-2.807616949081421,-1.03759765625,-3.845214605331421
0.8590087890625,0.2086181640625,0.4520263671875,-3.295898199081421,-1.15966796875,-3.723144292831421
0.8577880859375,0.207763671875,0.45654296875,-1.7089842557907104,-1.15966796875,-3.295898199081421
0.8597412109375,0.205078125,0.4471435546875,-0.7324218153953552,-1.2817381620407104,-3.112792730331421
0.865478515625,0.2113037109375,0.4422607421875,0.1831054538488388,-2.01416015625,-2.563476324081421
0.8626708984375,0.2098388671875,0.4464111328125,-0.4272460639476776,-2.3193359375,-2.44140625
0.862548828125,0.19580078125,0.4486083984375,-0.1220703050494194,-1.7700194120407104,-2.44140625
0.8583984375,0.1923828125,0.4560546875,0.6713866591453552,-0.4272460639476776,-2.0751953125
0.864013671875,0.2005615234375,0.4525146484375,1.15966796875,0.3662109076976776,-1.5258787870407104
0.8624267578125,0.197509765625,0.456298828125,1.7700194120407104,0.7324218153953552,-0.8544921278953552
0.8668212890625,0.198974609375,0.457763671875,1.5869139432907104,0.54931640625,-0.0610351525247097
0.8599853515625,0.2017822265625,0.454345703125,0.54931640625,0.1220703050494194,-0.1831054538488388
0.859130859375,0.1934814453125,0.4547119140625,0.8544921278953552,0.1831054538488388,-0.2441406100988388
0.8590087890625,0.2022705078125,0.4573974609375,1.3427733182907104,0.0610351525247097,0.3662109076976776
0.8597412109375,0.2047119140625,0.450439453125,1.0986328125,-0.2441406100988388,0.30517578125
0.857177734375,0.203125,0.4534912109375,0.1220703050494194,-0.9155272841453552,-0.4882812201976776
0.8514404296875,0.1915283203125,0.46044921875,0.9155272841453552,-0.30517578125,-0.6103515625
0.8572998046875,0.1962890625,0.454345703125,1.4648436307907104,0.0,-0.7324218153953552
1.4410400390625,0.586669921875,0.6844482421875,-59.692378997802734,31.555173873901367,32.1044921875
1.58251953125,0.6954345703125,0.6748046875,-80.13916015625,43.457027435302734,39.24560546875
1.6590576171875,0.619384765625,0.53125,-71.35009765625,53.405757904052734,46.203609466552734
1.5430908203125,0.533447265625,0.4765625,-62.438961029052734,50.231929779052734,43.945308685302734
1.3780517578125,0.4876708984375,0.422607421875,-61.157222747802734,41.320796966552734,31.494138717651367
1.221923828125,0.394775390625,0.3826904296875,-50.231929779052734,23.742673873901367,16.66259765625
1.113037109375,0.353271484375,0.3121337890625,-30.029294967651367,4.638671875,-4.638671875
1.036376953125,0.2283935546875,0.1881103515625,-21.484373092651367,-14.343260765075684,-25.451658248901367
0.88134765625,0.2213134765625,0.24951171875,-24.841306686401367,-31.494138717651367,-52.612300872802734
0.64111328125,0.1783447265625,0.3067626953125,-15.014647483825684,-37.17041015625,-76.66015625
0.5606689453125,0.0625,0.16064453125,8.85009765625,-43.029781341552734,-91.24755096435547
0.41650390625,0.0531005859375,0.171630859375,12.207030296325684,-51.818843841552734,-106.99462127685547
0.1768798828125,0.047119140625,0.2861328125,22.460935592651367,-44.677730560302734,-129.57763671875
0.2525634765625,-0.06005859375,0.185791015625,37.4755859375,-38.14697265625,-122.80272674560547
0.2637939453125,-0.1407470703125,0.1470947265625,13.854979515075684,-42.297359466552734,-116.63817596435547
0.2725830078125,-0.041259765625,0.212890625,13.366698265075684,-39.12353515625,-100.21971893310547
0.4188232421875,-0.014892578125,0.25634765625,5.554198741912842,-27.465818405151367,-65.85693359375
0.498046875,0.065673828125,0.3458251953125,0.7934569716453552,-15.136717796325684,-29.846189498901367
0.6732177734375,0.1424560546875,0.322509765625,32.2265625,-2.929687261581421,5.737304210662842
0.803955078125,0.026123046875,0.3111572265625,11.535643577575684,-4.5166015625,14.953612327575684
0.8636474609375,0.05224609375,0.3765869140625,4.39453125,-4.5166015625,13.000487327575684
0.9112548828125,-0.0821533203125,0.4339599609375,10.253905296325684,-5.065917491912842,6.286620616912842
0.95556640625,-0.1092529296875,0.496337890625,4.69970703125,-8.6669921875,0.4882812201976776
0.90283203125,-0.0439453125,0.5311279296875,16.17431640625,-5.920409679412842,-1.220703125
0.92431640625,-0.064697265625,0.5120849609375,6.469726085662842,-5.065917491912842,-4.45556640625
0.881103515625,-0.025634765625,0.48583984375,-1.7089842557907104,-3.295898199081421,-6.347655773162842
0.834228515625,-0.009765625,0.4423828125,-0.0610351525247097,-2.13623046875,-5.981444835662842
0.874755859375,-0.0770263671875,0.39599609375,2.197265625,-1.5869139432907104,-1.5258787870407104
0.840087890625,-0.034423828125,0.4207763671875,-6.652831554412842,-4.5166015625,-2.746581792831421
0.82568359375,0.0072021484375,0.43408203125,-1.5869139432907104,-1.9531248807907104,-1.3427733182907104
0.84033203125,-0.05810546875,0.429443359375,5.065917491912842,-0.4272460639476776,1.8920897245407104
0.7896728515625,-0.032470703125,0.4293212890625,1.4648436307907104,-1.3427733182907104,3.234863042831421
0.7762451171875,-0.017822265625,0.4200439453125,9.8876953125,-0.30517578125,12.878417015075684
0.7060546875,-0.0062255859375,0.43115234375,14.282225608825684,3.173827886581421,23.986814498901367
0.6883544921875,-0.0224609375,0.369140625,13.610838890075684,7.629394054412842,35.2783203125
0.68359375,-0.015625,0.337646484375,13.854979515075684,6.896972179412842,44.799800872802734
0.6185302734375,0.011962890625,0.4117431640625,8.85009765625,8.7890625,55.786128997802734
0.58740234375,0.0157470703125,0.3924560546875,6.835937023162842,17.63916015625,64.0869140625
0.7127685546875,0.0084228515625,0.3226318359375,12.512206077575684,12.695311546325684,67.81005859375
0.64306640625,0.0264892578125,0.3916015625,2.807616949081421,15.075682640075684,67.9931640625
0.6436767578125,0.081787109375,0.3973388671875,4.638671875,28.015134811401367,71.22802734375
0.830078125,0.0621337890625,0.2969970703125,9.521484375,18.49365234375,59.387203216552734
0.826171875,0.1627197265625,0.34130859375,-9.21630859375,14.709471702575684,44.982906341552734
0.7991943359375,0.2462158203125,0.42578125,-16.4794921875,17.333984375,36.865234375
0.940673828125,0.1697998046875,0.34130859375,-12.207030296325684,12.084959983825684,33.447265625
0.9593505859375,0.197021484375,0.384033203125,-14.831542015075684,3.967284917831421,28.137205123901367
0.826171875,0.2044677734375,0.47119140625,-16.11328125,11.047362327575684,15.258788108825684
0.9952392578125,0.18994140625,0.3875732421875,-8.056640625,12.207030296325684,10.620116233825684
0.9022216796875,0.2076416015625,0.4678955078125,-8.1787109375,10.803221702575684,6.225585460662842
0.92431640625,0.2335205078125,0.3682861328125,-6.958007335662842,12.207030296325684,-2.3193359375
1.0625,0.240234375,0.3623046875,1.4038084745407104,6.408690929412842,-1.5869139432907104
0.963134765625,0.2882080078125,0.484375,-5.615233898162842,4.39453125,-9.82666015625
1.03173828125,0.23583984375,0.416748046875,-1.8310545682907104,8.056640625,-6.835937023162842
1.109375,0.2025146484375,0.3958740234375,0.4882812201976776,1.15966796875,-2.44140625
0.982177734375,0.2628173828125,0.4537353515625,-8.85009765625,2.563476324081421,-9.82666015625
1.034912109375,0.220703125,0.3609619140625,-9.1552734375,6.164550304412842,-8.056640625
1.0474853515625,0.2052001953125,0.336181640625,-8.60595703125,7.690429210662842,-1.5869139432907104
0.978515625,0.261474609375,0.3592529296875,-13.305663108825684,3.479003667831421,-9.521484375
1.0054931640625,0.2337646484375,0.328125,1.8310545682907104,7.690429210662842,-9.6435546875
1.0068359375,0.195068359375,0.333984375,14.038084983825684,9.6435546875,-0.1831054538488388
0.9794921875,0.247802734375,0.39453125,6.103515148162842,9.46044921875,-4.57763671875
0.9886474609375,0.244384765625,0.355224609375,14.587401390075684,14.038084983825684,-0.7324218153953552
1.039794921875,0.1875,0.297607421875,14.343260765075684,12.390135765075684,3.173827886581421
1.0206298828125,0.242431640625,0.3272705078125,5.432128429412842,11.291502952575684,1.7089842557907104
0.9661865234375,0.2520751953125,0.3399658203125,-0.4272460639476776,14.709471702575684,-0.30517578125
1.0172119140625,0.21630859375,0.265625,-3.906249761581421,14.953612327575684,2.746581792831421
1.0126953125,0.2586669921875,0.268310546875,-9.8876953125,12.145995140075684,1.4648436307907104
0.97265625,0.285400390625,0.270263671875,-12.756346702575684,11.169432640075684,1.03759765625
0.99853515625,0.26904296875,0.2255859375,-9.765625,8.72802734375,2.0751953125
0.9920654296875,0.28955078125,0.2349853515625,-8.7890625,5.249022960662842,2.0751953125
0.9434814453125,0.2841796875,0.2584228515625,-9.09423828125,2.44140625,3.784179449081421
0.9461669921875,0.3121337890625,0.248291015625,-5.737304210662842,-0.8544921278953552,-1.15966796875
0.943359375,0.24365234375,0.2642822265625,-2.3193359375,-1.7700194120407104,-6.103515148162842
0.9613037109375,0.2464599609375,0.2413330078125,-0.6713866591453552,-2.01416015625,-5.432128429412842
0.970458984375,0.2615966796875,0.2449951171875,-1.9531248807907104,-2.44140625,-5.249022960662842
0.9522705078125,0.2440185546875,0.2662353515625,-5.126952648162842,-1.5258787870407104,-5.676269054412842
0.9422607421875,0.2122802734375,0.2637939453125,-4.0283203125,0.6103515625,-4.21142578125
0.9478759765625,0.2073974609375,0.2467041015625,-1.3427733182907104,1.03759765625,-1.5258787870407104
0.9337158203125,0.2147216796875,0.251220703125,-0.7934569716453552,0.6713866591453552,0.1220703050494194
0.9232177734375,0.226806640625,0.255615234375,0.0,0.3662109076976776,0.6103515625
0.9248046875,0.2196044921875,0.25341796875,1.03759765625,0.6713866591453552,1.220703125
0.9271240234375,0.2286376953125,0.2454833984375,1.3427733182907104,0.4882812201976776,1.220703125
0.92578125,0.2281494140625,0.2470703125,0.8544921278953552,-0.30517578125,1.2817381620407104
0.9210205078125,0.2442626953125,0.2501220703125,-0.6713866591453552,-0.6103515625,1.6479490995407104
0.9237060546875,0.2440185546875,0.248046875,-0.4272460639476776,-0.8544921278953552,1.2817381620407104
0.9246826171875,0.244873046875,0.239501953125,-0.30517578125,-0.8544921278953552,0.3662109076976776
0.9293212890625,0.24365234375,0.237060546875,1.15966796875,-1.3427733182907104,-0.6713866591453552
0.9210205078125,0.23974609375,0.2415771484375,3.051757574081421,-1.8920897245407104,-1.9531248807907104
0.916748046875,0.24755859375,0.2786865234375,3.234863042831421,-2.990722417831421,-3.295898199081421
0.9228515625,0.2362060546875,0.2752685546875,3.723144292831421,-2.685546636581421,-3.356933355331421
0.92431640625,0.2315673828125,0.27490234375,3.845214605331421,-3.051757574081421,-3.784179449081421
0.9195556640625,0.240234375,0.28857421875,2.50244140625,-2.868652105331421,-2.563476324081421
0.9197998046875,0.2325439453125,0.2911376953125,0.7934569716453552,-2.746581792831421,-2.38037109375
0.9310302734375,0.2200927734375,0.270751953125,2.38037109375,-1.8310545682907104,-2.197265625
0.9315185546875,0.23095703125,0.2655029296875,2.38037109375,-1.8920897245407104,-1.9531248807907104
0.926025390625,0.2269287109375,0.2762451171875,2.50244140625,-1.3427733182907104,-1.4038084745407104
0.9281005859375,0.21923828125,0.28271484375,1.7700194120407104,-0.54931640625,-1.4648436307907104
0.9234619140625,0.2100830078125,0.282470703125,3.417968511581421,0.2441406100988388,-1.5869139432907104
0.916748046875,0.2125244140625,0.2919921875,3.845214605331421,1.220703125,-1.220703125
0.928466796875,0.2154541015625,0.2750244140625,4.57763671875,1.0986328125,-0.30517578125
0.9295654296875,0.219970703125,0.2734375,3.906249761581421,-0.4882812201976776,-0.9765624403953552
0.931396484375,0.2158203125,0.2847900390625,2.44140625,-0.7934569716453552,-0.0610351525247097
0.9329833984375,0.21826171875,0.27734375,1.5869139432907104,-0.6103515625,-0.4272460639476776
0.934326171875,0.2196044921875,0.2772216796875,2.0751953125,-0.4882812201976776,-0.30517578125
0.92626953125,0.224365234375,0.295654296875,0.4272460639476776,-0.1831054538488388,-0.54931640625
0.9306640625,0.2156982421875,0.2879638671875,0.6713866591453552,0.54931640625,-0.9155272841453552
0.9183349609375,0.21630859375,0.287353515625,2.990722417831421,-0.6103515625,-1.5258787870407104
0.9248046875,0.2161865234375,0.2952880859375,2.3193359375,-1.5869139432907104,-1.0986328125
0.9287109375,0.22314453125,0.2821044921875,1.8920897245407104,-1.9531248807907104,-1.7089842557907104
1.6055908203125,0.562255859375,0.4698486328125,-42.785640716552734,6.958007335662842,29.846189498901367
1.7027587890625,0.62841796875,0.4813232421875,-44.921871185302734,12.390135765075684,43.029781341552734
1.741943359375,0.6165771484375,0.4560546875,-44.982906341552734,18.5546875,49.194332122802734
1.6385498046875,0.50634765625,0.3758544921875,-36.4990234375,19.10400390625,44.250484466552734
1.4954833984375,0.4219970703125,0.32275390625,-31.860349655151367,13.366698265075684,34.36279296875
1.3985595703125,0.3934326171875,0.3155517578125,-27.648923873901367,3.295898199081421,15.380858421325684
1.227783203125,0.3060302734375,0.284912109375,-22.277830123901367,-9.09423828125,-13.427733421325684
1.0093994140625,0.2017822265625,0.2625732421875,-7.507323741912842,-27.038572311401367,-41.137691497802734
0.7496337890625,0.0838623046875,0.1978759765625,19.59228515625,-45.288082122802734,-62.377925872802734
0.483154296875,0.061279296875,0.1693115234375,34.85107421875,-51.818843841552734,-92.04100799560547
0.2813720703125,0.0467529296875,0.1068115234375,35.46142578125,-55.480953216552734,-112.48778533935547
0.0625,-0.008056640625,0.1715087890625,12.329100608825684,-52.917476654052734,-130.06591796875
0.1099853515625,-0.0819091796875,0.1982421875,0.7934569716453552,-44.799800872802734,-143.1884765625
0.224609375,-0.1514892578125,0.133056640625,-7.202147960662842,-42.175289154052734,-115.11229705810547
0.269287109375,-0.0543212890625,0.317626953125,-25.573728561401367,-35.21728515625,-95.76415252685547
0.4029541015625,-0.028076171875,0.3421630859375,4.94384765625,-9.70458984375,-51.269527435302734
0.6202392578125,0.007080078125,0.345458984375,20.568845748901367,0.54931640625,-21.179197311401367
0.674072265625,0.0738525390625,0.3328857421875,30.151365280151367,7.141112804412842,-2.929687261581421
0.81640625,-0.0238037109375,0.2532958984375,42.053218841552734,7.507323741912842,12.695311546325684
0.8389892578125,0.0032958984375,0.33984375,37.53662109375,1.7700194120407104,15.136717796325684
0.9339599609375,-0.0045166015625,0.38134765625,25.146482467651367,0.4272460639476776,17.15087890625
0.8990478515625,-0.0203857421875,0.466064453125,9.3994140625,0.9765624403953552,10.375975608825684
0.933349609375,-0.0699462890625,0.480224609375,2.01416015625,2.807616949081421,7.995604991912842
0.9183349609375,-0.0870361328125,0.4930419921875,-1.0986328125,0.9155272841453552,7.263183116912842
0.8936767578125,-0.063232421875,0.498291015625,-11.962889671325684,-2.0751953125,1.7700194120407104
0.8819580078125,-0.0211181640625,0.433349609375,-1.4648436307907104,0.9155272841453552,1.7089842557907104
0.884765625,-0.0594482421875,0.37158203125,-5.249022960662842,-1.6479490995407104,0.0610351525247097
0.825927734375,-0.0048828125,0.3521728515625,-8.056640625,-2.624511480331421,1.4038084745407104
0.811279296875,0.0054931640625,0.3350830078125,-2.624511480331421,1.8920897245407104,10.192870140075684
0.7271728515625,-0.0120849609375,0.344482421875,0.4882812201976776,3.417968511581421,21.057126998901367
0.6397705078125,0.0147705078125,0.3323974609375,6.225585460662842,8.6669921875,39.61181640625
0.6346435546875,-0.013671875,0.297607421875,11.108397483825684,13.061522483825684,58.410640716552734
0.6031494140625,-0.0108642578125,0.3037109375,5.615233898162842,14.648436546325684,69.2138671875
0.6060791015625,0.0352783203125,0.3184814453125,11.169432640075684,20.690916061401367,78.369140625
0.6697998046875,0.0416259765625,0.30224609375,13.244627952575684,22.338865280151367,82.33641815185547
0.7041015625,0.0850830078125,0.310302734375,11.901854515075684,20.385740280151367,81.29882049560547
0.697509765625,0.0997314453125,0.34228515625,1.15966796875,32.470703125,83.49608612060547
0.854736328125,0.1270751953125,0.251708984375,-5.920409679412842,27.709959030151367,69.82421875
0.867431640625,0.204345703125,0.34716796875,-21.362302780151367,20.080564498901367,54.992671966552734
0.8087158203125,0.3021240234375,0.3583984375,-32.5927734375,29.357908248901367,52.795406341552734
0.943115234375,0.2130126953125,0.203857421875,-16.78466796875,18.798828125,48.217769622802734
0.9466552734375,0.2655029296875,0.324951171875,-23.376462936401367,4.39453125,39.48974609375
0.8265380859375,0.390380859375,0.390625,-21.118162155151367,7.934569835662842,30.334470748901367
0.9730224609375,0.276611328125,0.2431640625,6.103515148162842,4.33349609375,30.822751998901367
0.967529296875,0.3095703125,0.332275390625,2.868652105331421,-6.347655773162842,31.188962936401367
0.913330078125,0.4354248046875,0.371337890625,4.33349609375,-4.33349609375,17.51708984375
1.047607421875,0.36328125,0.2615966796875,19.6533203125,-4.8828125,17.7001953125
0.9722900390625,0.3985595703125,0.31982421875,16.05224609375,-13.977049827575684,17.2119140625
0.9390869140625,0.3570556640625,0.3338623046875,4.82177734375,-9.21630859375,8.4228515625
0.9869384765625,0.4144287109375,0.3265380859375,1.220703125,-2.807616949081421,1.4038084745407104
0.94677734375,0.4146728515625,0.3822021484375,-6.835937023162842,-3.234863042831421,-2.868652105331421
0.9471435546875,0.414306640625,0.3486328125,-9.70458984375,-4.21142578125,-10.681151390075684
0.99609375,0.447998046875,0.319091796875,13.671874046325684,-4.638671875,-5.920409679412842
0.9576416015625,0.36376953125,0.382568359375,10.375975608825684,-3.417968511581421,-8.36181640625
0.9168701171875,0.401611328125,0.4122314453125,-1.15966796875,-4.5166015625,-13.305663108825684
0.9544677734375,0.4189453125,0.366455078125,10.986327171325684,-6.347655773162842,-13.732909202575684
0.9810791015625,0.3892822265625,0.2962646484375,8.36181640625,-9.33837890625,-17.27294921875
0.923583984375,0.4112548828125,0.3409423828125,-8.23974609375,-10.192870140075684,-23.437498092651367
0.9462890625,0.372802734375,0.352294921875,-11.840819358825684,-8.056640625,-28.686521530151367
0.9998779296875,0.337158203125,0.3509521484375,-7.202147960662842,-11.657713890075684,-29.174802780151367
0.958251953125,0.3841552734375,0.4210205078125,2.746581792831421,-13.183592796325684,-29.907224655151367
0.959228515625,0.3734130859375,0.42333984375,12.634276390075684,-10.314940452575684,-30.029294967651367
0.9364013671875,0.3177490234375,0.4034423828125,5.554198741912842,-12.329100608825684,-31.311033248901367
0.969482421875,0.2891845703125,0.3670654296875,8.9111328125,-12.878417015075684,-25.634763717651367
0.9779052734375,0.2540283203125,0.3565673828125,6.591796398162842,-14.709471702575684,-18.798828125
0.9229736328125,0.2467041015625,0.418701171875,-13.244627952575684,-14.160155296325684,-22.644041061401367
0.9154052734375,0.163818359375,0.423828125,-18.49365234375,-9.94873046875,-18.5546875
0.9190673828125,0.183837890625,0.39306640625,-7.568358898162842,0.7934569716453552,-7.019042491912842
0.8927001953125,0.184326171875,0.3482666015625,0.7934569716453552,0.54931640625,-2.685546636581421
0.880126953125,0.1995849609375,0.395751953125,-5.981444835662842,-2.746581792831421,-8.30078125
0.9046630859375,0.19482421875,0.3594970703125,1.03759765625,-4.8828125,-6.713866710662842
0.9080810546875,0.1942138671875,0.3773193359375,-0.0610351525247097,-7.385253429412842,-6.469726085662842
0.89013671875,0.208251953125,0.4268798828125,-6.286620616912842,-6.591796398162842,-7.995604991912842
0.9031982421875,0.197509765625,0.4178466796875,-3.173827886581421,-6.347655773162842,-7.751464366912842
0.9171142578125,0.16015625,0.39013671875,0.4882812201976776,-6.774901866912842,-3.173827886581421
0.9014892578125,0.191162109375,0.4283447265625,-4.69970703125,-5.859374523162842,-1.7700194120407104
0.8885498046875,0.1749267578125,0.4130859375,-5.065917491912842,-3.051757574081421,-0.2441406100988388
0.88623046875,0.1788330078125,0.406494140625,-0.7324218153953552,-3.173827886581421,2.01416015625
0.8739013671875,0.188720703125,0.4207763671875,-1.8310545682907104,-2.868652105331421,1.3427733182907104
0.869384765625,0.181640625,0.430419921875,-2.685546636581421,-3.234863042831421,-0.1831054538488388
0.8701171875,0.17919921875,0.4200439453125,3.662109136581421,-3.967284917831421,0.6713866591453552
0.8677978515625,0.1812744140625,0.4356689453125,1.4648436307907104,-3.479003667831421,-0.3662109076976776
0.863525390625,0.2022705078125,0.434814453125,1.4648436307907104,-2.0751953125,-0.2441406100988388
0.875,0.198486328125,0.4061279296875,2.38037109375,-3.784179449081421,1.5869139432907104
0.8648681640625,0.1978759765625,0.435791015625,-0.3662109076976776,-4.5166015625,1.220703125
0.8497314453125,0.1878662109375,0.4388427734375,-2.25830078125,-1.5869139432907104,-0.1831054538488388
0.853271484375,0.1529541015625,0.4364013671875,-2.624511480331421,1.15966796875,0.6103515625
0.8427734375,0.181884765625,0.4451904296875,0.3662109076976776,3.479003667831421,2.563476324081421
0.8380126953125,0.1885986328125,0.42578125,2.25830078125,5.0048828125,3.906249761581421
0.8359375,0.1971435546875,0.4129638671875,1.15966796875,5.371093273162842,3.173827886581421
0.8551025390625,0.1981201171875,0.4063720703125,3.417968511581421,4.45556640625,3.234863042831421
0.866943359375,0.1982421875,0.4388427734375,2.563476324081421,3.112792730331421,3.417968511581421
0.869140625,0.21484375,0.4598388671875,2.50244140625,3.479003667831421,3.295898199081421
0.8770751953125,0.2100830078125,0.4368896484375,1.03759765625,4.45556640625,2.25830078125
0.8846435546875,0.2203369140625,0.4149169921875,0.54931640625,4.7607421875,-0.30517578125
0.8936767578125,0.189453125,0.41357421875,6.591796398162842,4.82177734375,-3.051757574081421
0.90478515625,0.1727294921875,0.3885498046875,4.69970703125,3.601073980331421,-3.051757574081421
0.89794921875,0.1822509765625,0.3887939453125,3.479003667831421,2.25830078125,-3.356933355331421
0.890869140625,0.1815185546875,0.4022216796875,2.746581792831421,2.01416015625,-2.563476324081421
0.8809814453125,0.1697998046875,0.4117431640625,0.4882812201976776,3.295898199081421,-1.8920897245407104
0.892333984375,0.1617431640625,0.3975830078125,1.0986328125,3.601073980331421,-0.1831054538488388
0.892333984375,0.181884765625,0.4007568359375,-0.1831054538488388,2.929687261581421,-0.2441406100988388
0.8939208984375,0.186767578125,0.3970947265625,-3.234863042831421,2.624511480331421,-0.3662109076976776
0.8953857421875,0.178955078125,0.398193359375,-4.2724609375,1.9531248807907104,0.9765624403953552
0.8868408203125,0.1939697265625,0.416748046875,-3.173827886581421,1.8310545682907104,1.7089842557907104
0.890380859375,0.1925048828125,0.3887939453125,0.0610351525247097,1.8310545682907104,2.25830078125
0.8837890625,0.197509765625,0.3919677734375,1.3427733182907104,1.220703125,1.8920897245407104
0.88525390625,0.196533203125,0.3922119140625,1.15966796875,0.9155272841453552,0.54931640625
0.88720703125,0.19091796875,0.3887939453125,2.197265625,1.5258787870407104,-0.6103515625
0.8917236328125,0.18994140625,0.385498046875,1.7089842557907104,1.7700194120407104,-1.6479490995407104
1.596923828125,0.4447021484375,0.5989990234375,-36.4990234375,6.530761241912842,14.953612327575684
1.727783203125,0.53271484375,0.5716552734375,-46.752925872802734,20.935056686401367,39.4287109375
1.764892578125,0.6055908203125,0.572265625,-57.678218841552734,32.5927734375,57.128902435302734
1.7127685546875,0.5330810546875,0.51904296875,-64.0869140625,36.56005859375,64.51416015625
1.6484375,0.4697265625,0.4873046875,-65.24658203125,35.58349609375,62.622066497802734
1.5977783203125,0.4505615234375,0.4818115234375,-60.485836029052734,32.04345703125,51.147457122802734
1.4149169921875,0.33251953125,0.42041015625,-47.241207122802734,22.705076217651367,29.785154342651367
1.2054443359375,0.267578125,0.32470703125,-31.494138717651367,7.141112804412842,-7.324218273162842
1.009033203125,0.1981201171875,0.3238525390625,-22.155759811401367,-15.441893577575684,-38.39111328125
0.7283935546875,0.1434326171875,0.2713623046875,11.779784202575684,-36.68212890625,-67.7490234375
0.500732421875,0.0592041015625,0.16650390625,53.833003997802734,-50.354000091552734,-88.92821502685547
0.298095703125,-0.0003662109375,0.0982666015625,54.809566497802734,-59.936519622802734,-112.42675018310547
-0.0394287109375,0.03515625,0.2435302734375,27.282712936401367,-58.654781341552734,-144.22607421875
-0.0716552734375,-0.0382080078125,0.2044677734375,29.174802780151367,-40.344234466552734,-148.3154296875
0.15234375,-0.173583984375,0.07763671875,9.46044921875,-38.87939453125,-123.47411346435547
0.2188720703125,-0.0252685546875,0.1961669921875,-7.873534679412842,-37.9638671875,-110.77880096435547
0.36279296875,-0.0364990234375,0.340087890625,-17.9443359375,-19.6533203125,-67.626953125
0.5806884765625,0.0546875,0.4027099609375,9.58251953125,9.09423828125,-12.145995140075684
0.75048828125,0.1136474609375,0.3575439453125,36.43798828125,12.756346702575684,18.5546875
0.88818359375,0.0782470703125,0.322265625,12.329100608825684,3.356933355331421,20.874021530151367
0.8585205078125,0.0810546875,0.38720703125,30.090330123901367,2.0751953125,17.51708984375
0.914794921875,-0.0621337890625,0.3660888671875,23.010251998901367,3.112792730331421,16.66259765625
0.942138671875,-0.072265625,0.401611328125,-1.7700194120407104,-2.44140625,13.671874046325684
0.860595703125,0.03173828125,0.5048828125,-1.5258787870407104,-0.7934569716453552,9.765625
0.8773193359375,0.0135498046875,0.4471435546875,1.8920897245407104,1.7700194120407104,7.995604991912842
0.929931640625,-0.0029296875,0.4173583984375,-13.610838890075684,-5.187987804412842,5.371093273162842
0.9405517578125,-0.0146484375,0.3677978515625,-3.051757574081421,-5.187987804412842,2.563476324081421
0.859130859375,0.0391845703125,0.3939208984375,-0.54931640625,-3.356933355331421,0.1831054538488388
0.891357421875,-0.01025390625,0.361083984375,11.352538108825684,0.4272460639476776,0.8544921278953552
0.9197998046875,-0.0299072265625,0.3905029296875,7.019042491912842,-5.859374523162842,-5.432128429412842
0.839599609375,0.003173828125,0.4693603515625,13.000487327575684,-5.065917491912842,-4.94384765625
0.866455078125,-0.0084228515625,0.454345703125,17.4560546875,-3.295898199081421,0.4882812201976776
0.828857421875,-0.0120849609375,0.4464111328125,15.136717796325684,-4.2724609375,5.249022960662842
0.783935546875,-0.008056640625,0.4139404296875,12.756346702575684,0.0,12.145995140075684
0.7958984375,-0.0299072265625,0.3721923828125,4.8828125,1.7089842557907104,19.6533203125
0.7557373046875,0.0135498046875,0.3858642578125,-7.019042491912842,2.685546636581421,26.123044967651367
0.724365234375,0.032470703125,0.3707275390625,-4.45556640625,7.446288585662842,36.9873046875
0.7138671875,0.0,0.342041015625,-4.8828125,10.314940452575684,43.579097747802734
0.6807861328125,0.0203857421875,0.3675537109375,-0.8544921278953552,12.512206077575684,52.917476654052734
0.7001953125,0.0225830078125,0.396728515625,-4.39453125,13.183592796325684,58.044429779052734
0.686279296875,0.0810546875,0.37158203125,-0.0610351525247097,20.324705123901367,61.279293060302734
0.7215576171875,0.0084228515625,0.328125,10.131834983825684,20.629880905151367,68.359375
0.736328125,0.04638671875,0.3509521484375,-4.0283203125,18.06640625,67.138671875
0.702880859375,0.1536865234375,0.4169921875,-13.671874046325684,21.667478561401367,64.75830078125
0.8076171875,0.1427001953125,0.3470458984375,-10.864256858825684,20.385740280151367,66.34521484375
0.8272705078125,0.201171875,0.328125,-20.690916061401367,16.78466796875,55.175777435302734
0.821533203125,0.279541015625,0.34375,-24.780271530151367,16.11328125,50.720211029052734
0.967529296875,0.222900390625,0.2734375,-19.10400390625,7.629394054412842,47.241207122802734
0.8690185546875,0.308837890625,0.3785400390625,-20.812986373901367,-0.6103515625,43.762203216552734
0.8309326171875,0.3865966796875,0.4111328125,-15.441893577575684,-0.4272460639476776,38.4521484375
0.9710693359375,0.34716796875,0.3443603515625,-13.549803733825684,-1.8920897245407104,36.68212890625
0.9381103515625,0.3436279296875,0.3524169921875,-10.437010765075684,-0.4272460639476776,31.372068405151367
0.849365234375,0.3590087890625,0.3817138671875,-2.563476324081421,6.103515148162842,19.34814453125
0.921630859375,0.410888671875,0.3426513671875,8.30078125,6.469726085662842,14.221190452575684
0.8758544921875,0.4427490234375,0.3856201171875,8.9111328125,8.056640625,9.33837890625
0.9271240234375,0.41455078125,0.32763671875,11.169432640075684,8.056640625,3.662109136581421
0.9678955078125,0.4215087890625,0.34326171875,16.9677734375,3.906249761581421,4.21142578125
0.9239501953125,0.4688720703125,0.416259765625,8.056640625,1.9531248807907104,1.03759765625
0.9132080078125,0.4508056640625,0.411865234375,2.3193359375,5.615233898162842,-2.563476324081421
0.976318359375,0.400634765625,0.3165283203125,6.530761241912842,2.0751953125,-4.69970703125
0.9368896484375,0.45458984375,0.3349609375,8.97216796875,-0.8544921278953552,-3.173827886581421
0.90380859375,0.54248046875,0.4176025390625,3.112792730331421,-0.8544921278953552,-4.0283203125
0.9639892578125,0.4764404296875,0.3394775390625,4.08935546875,-4.45556640625,-8.4228515625
0.98583984375,0.42333984375,0.277587890625,12.756346702575684,-9.765625,-10.681151390075684
0.915283203125,0.460693359375,0.4656982421875,18.98193359375,-11.535643577575684,-8.30078125
0.8826904296875,0.4166259765625,0.4515380859375,20.446775436401367,-10.437010765075684,-8.4228515625
0.915283203125,0.415283203125,0.374755859375,35.5224609375,-9.1552734375,-9.21630859375
0.9417724609375,0.3778076171875,0.314453125,41.503902435302734,-15.563963890075684,-4.150390625
0.875244140625,0.43115234375,0.3983154296875,29.357908248901367,-18.73779296875,-9.82666015625
0.8665771484375,0.3870849609375,0.394775390625,29.968259811401367,-15.319823265075684,-14.282225608825684
0.9029541015625,0.3172607421875,0.3701171875,20.568845748901367,-15.686034202575684,-15.075682640075684
0.864990234375,0.358154296875,0.478515625,2.685546636581421,-13.793944358825684,-20.812986373901367
0.867431640625,0.3240966796875,0.4937744140625,8.1787109375,-5.065917491912842,-22.583005905151367
