aX,aY,aZ,gX,gY,gZ
1.3271484375,-0.167236328125,1.0787353515625,-5.798339366912842,-11.352538108825684,-6.225585460662842
1.349609375,-0.19677734375,1.014892578125,6.652831554412842,-4.8828125,-1.6479490995407104
1.3358154296875,-0.14453125,1.0233154296875,13.305663108825684,-3.906249761581421,7.690429210662842
1.2996826171875,-0.1322021484375,1.0115966796875,-2.563476324081421,-4.08935546875,9.82666015625
1.265625,-0.18017578125,0.948974609375,-1.2817381620407104,-0.6713866591453552,12.573241233825684
1.20556640625,-0.1785888671875,0.8870849609375,6.652831554412842,2.3193359375,18.37158203125
1.147705078125,-0.1158447265625,0.869384765625,1.4038084745407104,2.990722417831421,21.972654342651367
1.108642578125,-0.096435546875,0.83740234375,0.4272460639476776,4.638671875,23.315427780151367
1.0526123046875,-0.1484375,0.7554931640625,10.559081077575684,4.2724609375,24.841306686401367
0.989501953125,-0.147705078125,0.6881103515625,21.301267623901367,-0.4882812201976776,24.169919967651367
0.9052734375,-0.1021728515625,0.72509765625,25.207517623901367,-3.540038824081421,21.057126998901367
0.771484375,-0.087890625,0.7027587890625,17.333984375,-2.44140625,11.596678733825684
0.7510986328125,-0.132568359375,0.4927978515625,17.578125,-2.01416015625,3.356933355331421
0.7274169921875,-0.125732421875,0.45166015625,52.062984466552734,-0.6103515625,-1.9531248807907104
0.5362548828125,-0.071533203125,0.5682373046875,57.556148529052734,4.0283203125,-12.268065452575684
0.4791259765625,-0.055419921875,0.4365234375,21.362302780151367,7.019042491912842,-23.376462936401367
0.464599609375,-0.1160888671875,0.20947265625,20.874021530151367,2.624511480331421,-16.78466796875
0.3353271484375,-0.0048828125,0.216552734375,7.141112804412842,-3.723144292831421,-0.6713866591453552
0.3553466796875,-0.0113525390625,0.2890625,-7.141112804412842,-5.981444835662842,9.27734375
0.518798828125,-0.0238037109375,0.301513671875,-19.59228515625,-9.521484375,16.17431640625
0.5672607421875,-0.0743408203125,0.380126953125,-15.991209983825684,-9.765625,18.4326171875
0.611572265625,-0.0574951171875,0.4459228515625,-12.817381858825684,-9.46044921875,17.822265625
0.7362060546875,-0.0477294921875,0.475341796875,-14.038084983825684,-11.535643577575684,13.793944358825684
0.76171875,-0.006591796875,0.55859375,-3.662109136581421,-9.46044921875,7.019042491912842
0.779052734375,0.0498046875,0.5748291015625,3.295898199081421,-6.896972179412842,5.187987804412842
0.817138671875,0.0111083984375,0.5712890625,-13.122557640075684,-10.192870140075684,5.065917491912842
0.7967529296875,0.0009765625,0.6148681640625,-3.540038824081421,-7.934569835662842,6.225585460662842
0.7750244140625,0.005126953125,0.641357421875,3.845214605331421,-4.150390625,6.469726085662842
0.7921142578125,0.0157470703125,0.6246337890625,-9.58251953125,-3.601073980331421,5.615233898162842
0.783447265625,-0.0084228515625,0.631103515625,-10.986327171325684,-2.0751953125,4.5166015625
0.757080078125,-0.028564453125,0.618408203125,-0.9765624403953552,0.3662109076976776,3.051757574081421
0.7586669921875,-0.01416015625,0.61376953125,-1.6479490995407104,0.6713866591453552,0.8544921278953552
0.74462890625,-0.02392578125,0.620361328125,-5.554198741912842,0.6713866591453552,-0.7324218153953552
0.7603759765625,-0.0423583984375,0.59619140625,-5.432128429412842,-0.0610351525247097,-1.7700194120407104
0.7872314453125,-0.0406494140625,0.6141357421875,-1.7089842557907104,-0.9155272841453552,-1.8920897245407104
0.781005859375,-0.030517578125,0.643310546875,0.0610351525247097,-1.5869139432907104,-2.44140625
0.7664794921875,-0.0330810546875,0.654296875,-2.746581792831421,-1.4038084745407104,-2.624511480331421
0.774169921875,-0.043212890625,0.625,-6.347655773162842,-0.8544921278953552,-1.6479490995407104
0.785400390625,-0.0499267578125,0.614990234375,-4.21142578125,0.30517578125,-0.7324218153953552
0.7620849609375,-0.0557861328125,0.6217041015625,-0.9765624403953552,1.4038084745407104,-1.8920897245407104
0.7607421875,-0.0556640625,0.6085205078125,2.0751953125,0.8544921278953552,-2.25830078125
0.7623291015625,-0.052001953125,0.6300048828125,-0.4882812201976776,-0.3662109076976776,-1.9531248807907104
0.7689208984375,-0.0577392578125,0.6304931640625,-3.234863042831421,-0.54931640625,-1.7700194120407104
0.761474609375,-0.0626220703125,0.630615234375,-2.01416015625,-0.3662109076976776,-1.8310545682907104
0.7691650390625,-0.0496826171875,0.6170654296875,0.6713866591453552,-0.2441406100988388,-2.0751953125
0.763427734375,-0.0462646484375,0.6292724609375,-1.3427733182907104,-1.2817381620407104,-2.44140625
0.771240234375,-0.0516357421875,0.628662109375,-2.38037109375,-2.197265625,-3.112792730331421
0.7724609375,-0.053466796875,0.6336669921875,-0.7324218153953552,-2.0751953125,-3.723144292831421
0.7801513671875,-0.0540771484375,0.6258544921875,0.4882812201976776,-1.3427733182907104,-4.0283203125
0.771240234375,-0.0545654296875,0.63916015625,0.0,-0.7934569716453552,-3.417968511581421
0.773681640625,-0.0576171875,0.6329345703125,-0.8544921278953552,-0.54931640625,-1.8310545682907104
0.76611328125,-0.05810546875,0.6363525390625,-2.13623046875,-0.8544921278953552,-1.3427733182907104
0.765380859375,-0.06298828125,0.6341552734375,-1.7700194120407104,-0.6713866591453552,-0.9765624403953552
0.7667236328125,-0.0560302734375,0.634521484375,-1.0986328125,-0.6103515625,-0.3662109076976776
0.759521484375,-0.0625,0.630126953125,-0.9155272841453552,-0.2441406100988388,-0.1220703050494194
0.7596435546875,-0.0513916015625,0.62255859375,0.4882812201976776,0.30517578125,-0.4882812201976776
0.764892578125,-0.0538330078125,0.619384765625,-0.9155272841453552,-0.30517578125,-0.54931640625
0.767822265625,-0.0537109375,0.6365966796875,0.1220703050494194,-0.3662109076976776,-0.54931640625
0.763427734375,-0.0618896484375,0.6370849609375,0.0,-0.1831054538488388,-0.8544921278953552
0.7706298828125,-0.057861328125,0.6270751953125,-1.2817381620407104,-0.2441406100988388,-0.6103515625
0.771484375,-0.0555419921875,0.63330078125,-1.03759765625,-0.1220703050494194,-0.6103515625
0.7713623046875,-0.052001953125,0.637451171875,-0.8544921278953552,0.1220703050494194,-0.7934569716453552
0.772216796875,-0.0487060546875,0.629150390625,-0.6713866591453552,0.0610351525247097,-0.7934569716453552
0.77001953125,-0.0550537109375,0.6341552734375,-1.4038084745407104,-0.3662109076976776,-0.7934569716453552
0.76953125,-0.061279296875,0.6431884765625,-1.7089842557907104,-0.7324218153953552,-0.6103515625
0.7696533203125,-0.062255859375,0.644775390625,-1.8920897245407104,-0.9765624403953552,0.0610351525247097
0.7708740234375,-0.05908203125,0.64501953125,-3.967284917831421,-1.4648436307907104,0.9155272841453552
0.779052734375,-0.0574951171875,0.6365966796875,-4.2724609375,-1.5869139432907104,1.8920897245407104
0.772216796875,-0.04931640625,0.6397705078125,-3.479003667831421,-1.5258787870407104,2.38037109375
0.7679443359375,-0.04296875,0.631103515625,-3.540038824081421,-1.8310545682907104,3.234863042831421
0.76416015625,-0.040283203125,0.637451171875,-4.150390625,-1.220703125,3.356933355331421
0.76318359375,-0.0343017578125,0.6337890625,-3.112792730331421,0.4882812201976776,3.479003667831421
0.7667236328125,-0.0394287109375,0.624267578125,-2.25830078125,1.15966796875,3.051757574081421
0.7647705078125,-0.0389404296875,0.6256103515625,0.9155272841453552,0.9155272841453552,2.807616949081421
0.7733154296875,-0.0413818359375,0.6343994140625,1.15966796875,-1.220703125,3.051757574081421
0.771728515625,-0.0362548828125,0.64208984375,1.3427733182907104,-3.234863042831421,4.45556640625
0.7685546875,-0.04150390625,0.6331787109375,0.3662109076976776,-3.356933355331421,5.615233898162842
0.7493896484375,-0.0479736328125,0.623046875,1.7089842557907104,-1.4648436307907104,6.286620616912842
0.75146484375,-0.04833984375,0.5987548828125,2.25830078125,0.2441406100988388,6.225585460662842
0.7574462890625,-0.0428466796875,0.6019287109375,2.197265625,0.7934569716453552,4.5166015625
0.7569580078125,-0.032958984375,0.6099853515625,2.685546636581421,0.3662109076976776,3.601073980331421
0.7705078125,-0.022705078125,0.6141357421875,0.1220703050494194,-0.54931640625,3.967284917831421
0.775146484375,-0.012451171875,0.642822265625,-0.9155272841453552,0.0,4.45556640625
0.77734375,-0.0203857421875,0.6549072265625,-0.1831054538488388,1.8920897245407104,1.7700194120407104
0.76611328125,-0.017333984375,0.6417236328125,2.50244140625,3.662109136581421,-1.5869139432907104
0.7711181640625,0.0029296875,0.6298828125,3.601073980331421,2.50244140625,-0.54931640625
0.7655029296875,0.001708984375,0.656005859375,-0.9765624403953552,-0.3662109076976776,0.8544921278953552
0.7523193359375,-0.0130615234375,0.67431640625,-1.2817381620407104,-0.9765624403953552,1.5869139432907104
0.7469482421875,-0.011474609375,0.65576171875,-1.8310545682907104,0.0610351525247097,1.3427733182907104
0.7479248046875,-0.006591796875,0.642333984375,-1.3427733182907104,0.54931640625,0.4882812201976776
0.74658203125,0.0015869140625,0.63916015625,0.0,0.30517578125,-0.4272460639476776
0.741943359375,-0.0106201171875,0.6458740234375,-0.9155272841453552,-0.0610351525247097,-1.3427733182907104
0.747314453125,-0.0203857421875,0.6419677734375,-0.7324218153953552,-0.0610351525247097,-2.25830078125
0.750244140625,-0.014892578125,0.640380859375,0.3662109076976776,0.1831054538488388,-2.3193359375
0.7530517578125,-0.0098876953125,0.6485595703125,-0.4272460639476776,0.1220703050494194,-2.0751953125
0.756103515625,-0.0087890625,0.6490478515625,-0.7934569716453552,0.0610351525247097,-1.8920897245407104
0.760009765625,-0.009521484375,0.6484375,0.1831054538488388,0.0,-1.4648436307907104
0.768310546875,-0.0042724609375,0.655517578125,-0.4882812201976776,-0.1220703050494194,-1.15966796875
0.770751953125,0.0018310546875,0.650634765625,-1.03759765625,-0.1220703050494194,-0.6103515625
0.7642822265625,0.001220703125,0.64306640625,-1.15966796875,-0.0610351525247097,0.30517578125
0.7625732421875,0.007080078125,0.6378173828125,-2.563476324081421,-0.1831054538488388,0.7324218153953552
0.76171875,-0.0030517578125,0.637451171875,-2.44140625,-0.0610351525247097,0.0
0.759765625,-0.0013427734375,0.634765625,-0.7324218153953552,0.54931640625,-0.3662109076976776
0.7576904296875,-0.007080078125,0.632568359375,-2.685546636581421,0.0610351525247097,-1.03759765625
0.76513671875,-0.00341796875,0.6285400390625,-1.220703125,0.0610351525247097,-1.5869139432907104
0.7633056640625,-0.004150390625,0.6324462890625,-1.5258787870407104,0.1220703050494194,-2.563476324081421
0.758056640625,-0.009765625,0.6405029296875,-1.9531248807907104,0.4882812201976776,-2.929687261581421
0.765380859375,-0.0123291015625,0.6365966796875,-3.417968511581421,0.7934569716453552,-2.746581792831421
0.7630615234375,-0.0091552734375,0.6353759765625,-4.82177734375,1.220703125,-2.563476324081421
0.765869140625,-0.006103515625,0.6268310546875,-4.69970703125,1.3427733182907104,-2.929687261581421
0.7679443359375,-0.0040283203125,0.627685546875,-3.295898199081421,1.2817381620407104,-3.967284917831421
0.7645263671875,-0.003173828125,0.6280517578125,-1.8920897245407104,1.0986328125,-4.94384765625
0.76513671875,-0.0068359375,0.623291015625,-1.2817381620407104,0.9155272841453552,-4.82177734375
0.773681640625,-0.0072021484375,0.625732421875,0.2441406100988388,0.8544921278953552,-3.479003667831421
0.7711181640625,-0.018310546875,0.6348876953125,0.1220703050494194,0.9155272841453552,-2.990722417831421
0.7767333984375,-0.03369140625,0.6268310546875,2.563476324081421,0.54931640625,-2.990722417831421
1.3428955078125,-0.1473388671875,1.0343017578125,6.347655773162842,-13.244627952575684,-6.530761241912842
1.35498046875,-0.182373046875,0.969970703125,10.620116233825684,-10.437010765075684,-2.807616949081421
1.345947265625,-0.2220458984375,0.9464111328125,15.502928733825684,-7.507323741912842,-0.6713866591453552
1.3336181640625,-0.2242431640625,0.9517822265625,14.892577171325684,-3.845214605331421,-0.1220703050494194
1.2794189453125,-0.2047119140625,0.9449462890625,10.314940452575684,-4.638671875,5.187987804412842
1.205810546875,-0.2154541015625,0.9388427734375,0.9765624403953552,-4.94384765625,10.375975608825684
1.16455078125,-0.2340087890625,0.8826904296875,5.310058116912842,-2.3193359375,14.831542015075684
1.1256103515625,-0.21923828125,0.8359375,12.695311546325684,-2.197265625,18.49365234375
1.022216796875,-0.1949462890625,0.791748046875,3.234863042831421,-6.408690929412842,18.6767578125
0.9591064453125,-0.1790771484375,0.730712890625,2.50244140625,-9.521484375,15.624999046325684
0.8507080078125,-0.1915283203125,0.6881103515625,18.5546875,-7.019042491912842,9.82666015625
0.807861328125,-0.1480712890625,0.6387939453125,15.747069358825684,-4.638671875,4.33349609375
0.7435302734375,-0.16748046875,0.562255859375,1.9531248807907104,-5.432128429412842,2.990722417831421
0.6331787109375,-0.171142578125,0.439453125,10.986327171325684,-7.385253429412842,1.4038084745407104
0.5833740234375,-0.0692138671875,0.489013671875,36.376953125,-5.859374523162842,0.30517578125
0.5333251953125,-0.0262451171875,0.547607421875,6.042479991912842,-3.784179449081421,-4.39453125
0.508544921875,-0.097412109375,0.357177734375,-12.512206077575684,-4.57763671875,-6.652831554412842
0.5030517578125,-0.11669921875,0.2518310546875,21.484373092651367,-5.065917491912842,2.01416015625
0.419189453125,-0.023681640625,0.418212890625,19.22607421875,-2.01416015625,8.36181640625
0.4095458984375,-0.0654296875,0.37939453125,-24.230955123901367,-0.1220703050494194,9.70458984375
0.4417724609375,-0.119873046875,0.2242431640625,-17.08984375,-2.38037109375,13.977049827575684
0.4483642578125,-0.060302734375,0.287841796875,5.554198741912842,-1.5869139432907104,16.78466796875
0.4857177734375,-0.045166015625,0.308349609375,-18.61572265625,0.0,11.352538108825684
0.49951171875,-0.0457763671875,0.3563232421875,-3.845214605331421,-1.3427733182907104,13.061522483825684
0.5318603515625,-0.0157470703125,0.43505859375,-4.69970703125,-2.746581792831421,12.268065452575684
0.6082763671875,-0.00927734375,0.452880859375,-10.864256858825684,-4.7607421875,9.6435546875
0.6766357421875,0.0118408203125,0.4849853515625,-1.3427733182907104,-5.859374523162842,8.85009765625
0.677001953125,0.043212890625,0.5682373046875,-0.2441406100988388,-5.554198741912842,7.995604991912842
0.728271484375,0.0640869140625,0.578125,-7.080077648162842,-6.469726085662842,5.432128429412842
0.7998046875,0.0704345703125,0.586669921875,-1.0986328125,-6.835937023162842,4.8828125
0.8074951171875,0.0533447265625,0.653564453125,0.0610351525247097,-4.7607421875,2.197265625
0.8134765625,0.0384521484375,0.66357421875,-2.929687261581421,-2.13623046875,0.0
0.8203125,0.037109375,0.6500244140625,-4.8828125,-0.1831054538488388,-0.4882812201976776
0.8173828125,0.040771484375,0.6309814453125,-1.8920897245407104,1.3427733182907104,1.15966796875
0.7940673828125,0.0316162109375,0.619384765625,-1.5869139432907104,2.746581792831421,1.2817381620407104
0.7919921875,0.01318359375,0.60595703125,-0.30517578125,2.868652105331421,0.6713866591453552
0.775390625,0.00341796875,0.61865234375,-0.8544921278953552,1.8310545682907104,0.7324218153953552
0.771484375,-0.003173828125,0.6292724609375,-1.15966796875,1.15966796875,0.9155272841453552
0.7716064453125,-0.009765625,0.60546875,-2.01416015625,1.15966796875,0.8544921278953552
0.7626953125,-0.0157470703125,0.614013671875,-1.220703125,-1.4038084745407104,-2.746581792831421
0.776611328125,-0.0157470703125,0.6180419921875,-0.3662109076976776,-2.3193359375,-3.051757574081421
0.7733154296875,-0.0313720703125,0.628173828125,-1.15966796875,-1.6479490995407104,-4.2724609375
0.7806396484375,-0.0394287109375,0.63134765625,0.4272460639476776,0.2441406100988388,-2.929687261581421
0.782958984375,-0.026611328125,0.6298828125,0.2441406100988388,1.2817381620407104,-1.3427733182907104
0.7786865234375,-0.0281982421875,0.61572265625,-0.8544921278953552,1.03759765625,-0.4882812201976776
0.773193359375,-0.0401611328125,0.628662109375,-0.4272460639476776,1.03759765625,-0.7324218153953552
0.785888671875,-0.0140380859375,0.611572265625,2.3193359375,0.1831054538488388,-0.1831054538488388
0.7796630859375,-0.0306396484375,0.6109619140625,1.4648436307907104,-0.0610351525247097,0.3662109076976776
0.782470703125,-0.035400390625,0.6031494140625,1.2817381620407104,0.2441406100988388,0.9765624403953552
0.776611328125,-0.0284423828125,0.597412109375,1.7089842557907104,1.03759765625,1.8310545682907104
0.780029296875,-0.0191650390625,0.5919189453125,1.7700194120407104,0.9155272841453552,1.9531248807907104
0.779541015625,-0.0289306640625,0.604736328125,2.25830078125,1.03759765625,1.220703125
0.7813720703125,-0.0294189453125,0.6187744140625,1.8310545682907104,1.8310545682907104,0.30517578125
0.7830810546875,-0.0242919921875,0.6107177734375,1.7089842557907104,1.9531248807907104,-0.3662109076976776
0.7828369140625,-0.0206298828125,0.6158447265625,1.3427733182907104,1.4648436307907104,-0.6103515625
0.7900390625,-0.0185546875,0.6260986328125,2.563476324081421,1.15966796875,-0.8544921278953552
0.78173828125,-0.0194091796875,0.6337890625,1.8920897245407104,0.9155272841453552,-1.03759765625
0.785400390625,-0.0224609375,0.6217041015625,0.3662109076976776,-0.30517578125,-0.30517578125
0.7806396484375,-0.0262451171875,0.635498046875,-0.8544921278953552,-0.3662109076976776,0.6103515625
0.7830810546875,-0.02392578125,0.6302490234375,-1.03759765625,0.8544921278953552,0.4272460639476776
0.7760009765625,-0.021240234375,0.615966796875,-2.01416015625,1.3427733182907104,0.2441406100988388
0.775146484375,-0.0205078125,0.6082763671875,-1.220703125,1.03759765625,0.30517578125
0.7713623046875,-0.0120849609375,0.6270751953125,0.54931640625,0.3662109076976776,0.4882812201976776
0.7742919921875,-0.0150146484375,0.621337890625,-1.8310545682907104,0.0610351525247097,0.1831054538488388
0.7750244140625,-0.0137939453125,0.61865234375,-2.0751953125,-0.4272460639476776,0.0610351525247097
0.772216796875,-0.0074462890625,0.6220703125,-1.4648436307907104,-0.54931640625,-0.3662109076976776
0.7799072265625,-0.0042724609375,0.612548828125,-1.15966796875,-0.7324218153953552,-1.0986328125
0.776123046875,-0.0067138671875,0.614501953125,0.0610351525247097,-0.4882812201976776,-1.8310545682907104
0.777099609375,-0.0123291015625,0.6064453125,0.6713866591453552,-0.2441406100988388,-2.197265625
0.771484375,-0.018310546875,0.6104736328125,-0.8544921278953552,-0.6103515625,-2.44140625
0.779541015625,-0.01806640625,0.6094970703125,0.3662109076976776,-0.6103515625,-2.44140625
0.782470703125,-0.0159912109375,0.614501953125,1.0986328125,-0.1220703050494194,-2.624511480331421
0.7862548828125,-0.0177001953125,0.6201171875,1.8310545682907104,-0.0610351525247097,-2.38037109375
0.7850341796875,-0.02783203125,0.6170654296875,0.0,0.1220703050494194,-2.13623046875
0.7869873046875,-0.0318603515625,0.6170654296875,0.1831054538488388,0.1220703050494194,-1.15966796875
0.787841796875,-0.0279541015625,0.6204833984375,0.4882812201976776,0.54931640625,-0.54931640625
0.7833251953125,-0.021484375,0.6185302734375,-0.3662109076976776,0.6103515625,0.0
0.783203125,-0.02587890625,0.610107421875,-1.03759765625,0.54931640625,0.2441406100988388
0.7806396484375,-0.02294921875,0.6158447265625,0.54931640625,0.6713866591453552,0.3662109076976776
0.7806396484375,-0.02001953125,0.613525390625,0.30517578125,0.3662109076976776,-0.1220703050494194
0.779541015625,-0.023681640625,0.61669921875,0.1220703050494194,-0.2441406100988388,-0.4272460639476776
0.78369140625,-0.0224609375,0.618896484375,0.7934569716453552,-0.1220703050494194,-0.4882812201976776
0.7799072265625,-0.027587890625,0.623046875,0.0610351525247097,0.4272460639476776,-0.54931640625
0.7802734375,-0.029052734375,0.610107421875,0.1831054538488388,0.7934569716453552,-0.4272460639476776
0.77734375,-0.0345458984375,0.6124267578125,0.0,0.7934569716453552,-0.1220703050494194
0.781494140625,-0.02685546875,0.6131591796875,0.6103515625,0.9155272841453552,0.1831054538488388
0.78125,-0.02587890625,0.615966796875,0.2441406100988388,0.8544921278953552,0.6713866591453552
0.77978515625,-0.0201416015625,0.6199951171875,0.1220703050494194,0.6713866591453552,0.54931640625
0.7763671875,-0.023681640625,0.6207275390625,0.3662109076976776,0.7934569716453552,0.30517578125
0.77978515625,-0.014404296875,0.6068115234375,0.9765624403953552,0.54931640625,0.1831054538488388
0.790771484375,-0.0103759765625,0.6026611328125,2.0751953125,0.0,0.30517578125
0.7930908203125,-0.01220703125,0.6124267578125,2.746581792831421,-0.7324218153953552,0.3662109076976776
0.7874755859375,-0.025634765625,0.6121826171875,2.25830078125,-1.03759765625,0.6103515625
0.7784423828125,-0.0355224609375,0.6124267578125,1.4038084745407104,-0.9155272841453552,0.54931640625
0.7796630859375,-0.042724609375,0.60498046875,2.807616949081421,-0.1220703050494194,0.8544921278953552
0.776611328125,-0.03466796875,0.6226806640625,2.44140625,0.4272460639476776,0.6103515625
0.77880859375,-0.0318603515625,0.61962890625,1.15966796875,0.4882812201976776,-0.0610351525247097
0.7803955078125,-0.031494140625,0.62353515625,1.6479490995407104,0.0610351525247097,-0.1831054538488388
0.782958984375,-0.0318603515625,0.6319580078125,0.8544921278953552,0.4272460639476776,0.30517578125
0.7747802734375,-0.0338134765625,0.6300048828125,-0.4272460639476776,0.6103515625,0.6103515625
0.779052734375,-0.025146484375,0.6131591796875,-1.6479490995407104,0.3662109076976776,0.8544921278953552
0.7806396484375,-0.022705078125,0.615234375,-1.7089842557907104,-0.1220703050494194,0.1831054538488388
0.78173828125,-0.021484375,0.6160888671875,0.7934569716453552,-0.30517578125,-0.4272460639476776
0.780517578125,-0.021240234375,0.616455078125,-0.4882812201976776,-0.2441406100988388,-0.4272460639476776
0.77392578125,-0.0245361328125,0.616943359375,-0.9155272841453552,0.0610351525247097,-0.4272460639476776
0.775390625,-0.021484375,0.6141357421875,-0.3662109076976776,0.30517578125,-0.3662109076976776
0.778076171875,-0.0223388671875,0.614501953125,-0.1831054538488388,0.6103515625,-0.30517578125
0.78125,-0.0111083984375,0.6158447265625,-0.6713866591453552,0.9155272841453552,-0.6103515625
0.78173828125,-0.013916015625,0.6134033203125,-0.1220703050494194,0.6103515625,-1.0986328125
0.7811279296875,-0.0164794921875,0.6192626953125,0.4882812201976776,0.30517578125,-1.15966796875
1.38037109375,-0.1304931640625,1.0538330078125,10.375975608825684,-5.126952648162842,-13.916014671325684
1.39990234375,-0.1771240234375,1.01416015625,21.484373092651367,-2.3193359375,-6.225585460662842
1.366455078125,-0.1959228515625,1.0150146484375,21.545408248901367,-4.0283203125,1.03759765625
1.301025390625,-0.2156982421875,0.990966796875,14.587401390075684,-3.723144292831421,5.493163585662842
1.2547607421875,-0.2255859375,0.9659423828125,9.8876953125,-0.6103515625,9.6435546875
1.209716796875,-0.201416015625,0.949462890625,9.521484375,1.03759765625,10.986327171325684
1.16015625,-0.2144775390625,0.9395751953125,6.652831554412842,1.4038084745407104,10.986327171325684
1.1527099609375,-0.2066650390625,0.8951416015625,8.48388671875,0.6103515625,11.413573265075684
1.134521484375,-0.19384765625,0.862548828125,11.108397483825684,-1.4648436307907104,15.014647483825684
1.103271484375,-0.1756591796875,0.8555908203125,5.737304210662842,-4.08935546875,17.578125
1.03369140625,-0.1943359375,0.8160400390625,0.30517578125,-4.7607421875,19.1650390625
0.9771728515625,-0.1822509765625,0.7156982421875,0.7324218153953552,-6.652831554412842,18.5546875
0.9486083984375,-0.1536865234375,0.69091796875,3.967284917831421,-11.901854515075684,17.333984375
0.866943359375,-0.1041259765625,0.75439453125,7.690429210662842,-11.291502952575684,16.54052734375
0.7904052734375,-0.1043701171875,0.66015625,12.207030296325684,-7.141112804412842,11.047362327575684
0.7083740234375,-0.1409912109375,0.5301513671875,19.775390625,-3.967284917831421,1.3427733182907104
0.5677490234375,-0.08349609375,0.4945068359375,32.8369140625,0.7324218153953552,-1.220703125
0.4510498046875,-0.0198974609375,0.4351806640625,10.314940452575684,1.03759765625,-4.150390625
0.4552001953125,-0.0789794921875,0.2755126953125,-10.009765625,-1.7089842557907104,-4.94384765625
0.4134521484375,-0.1156005859375,0.2198486328125,16.29638671875,1.220703125,0.0
0.322998046875,-0.0384521484375,0.2662353515625,29.907224655151367,7.202147960662842,0.9155272841453552
0.3431396484375,-0.0615234375,0.234619140625,-11.352538108825684,-0.1831054538488388,6.286620616912842
0.3509521484375,-0.05859375,0.300537109375,-7.263183116912842,-3.234863042831421,8.85009765625
0.41015625,-0.0533447265625,0.3031005859375,-9.3994140625,-5.676269054412842,10.620116233825684
0.497314453125,-0.051513671875,0.3270263671875,-14.282225608825684,-8.7890625,9.70458984375
0.533935546875,-0.0654296875,0.4180908203125,-13.488768577575684,-10.742186546325684,5.920409679412842
0.6361083984375,-0.033935546875,0.47412109375,-10.620116233825684,-12.207030296325684,3.540038824081421
0.71337890625,0.0380859375,0.560546875,-9.6435546875,-11.901854515075684,1.4038084745407104
0.7423095703125,0.0419921875,0.580322265625,-3.845214605331421,-8.7890625,-0.1220703050494194
0.798828125,0.038818359375,0.598388671875,-10.009765625,-8.7890625,-0.3662109076976776
0.811767578125,0.051513671875,0.68115234375,-8.11767578125,-6.652831554412842,-0.4272460639476776
0.814697265625,0.044189453125,0.695068359375,1.15966796875,-0.54931640625,-2.25830078125
0.79150390625,0.013427734375,0.6512451171875,-1.8310545682907104,1.5258787870407104,-5.249022960662842
0.7860107421875,-0.0093994140625,0.6043701171875,-6.469726085662842,-0.4272460639476776,-4.150390625
0.7752685546875,-0.012939453125,0.6304931640625,-5.432128429412842,-0.8544921278953552,-2.3193359375
0.7784423828125,-0.020751953125,0.6341552734375,-6.103515148162842,1.8310545682907104,-1.8310545682907104
0.7774658203125,-0.0255126953125,0.6080322265625,-8.1787109375,3.845214605331421,-1.7089842557907104
0.766845703125,-0.033203125,0.60498046875,-4.08935546875,5.0048828125,-1.220703125
0.78466796875,-0.0106201171875,0.579345703125,1.0986328125,4.69970703125,-0.4882812201976776
0.7789306640625,-0.013671875,0.5953369140625,-2.25830078125,2.13623046875,-0.8544921278953552
0.777099609375,-0.026611328125,0.6087646484375,-1.7700194120407104,1.03759765625,-2.197265625
0.775634765625,-0.051025390625,0.611328125,5.065917491912842,1.3427733182907104,-3.540038824081421
0.7767333984375,-0.0482177734375,0.6217041015625,5.371093273162842,1.4648436307907104,-6.042479991912842
0.7723388671875,-0.047607421875,0.62255859375,4.45556640625,0.9765624403953552,-6.652831554412842
0.7733154296875,-0.06640625,0.61962890625,2.01416015625,-0.54931640625,-5.859374523162842
0.7894287109375,-0.0869140625,0.625,2.624511480331421,-1.2817381620407104,-4.7607421875
0.782470703125,-0.09423828125,0.645263671875,4.08935546875,-0.54931640625,-3.967284917831421
0.792236328125,-0.0823974609375,0.630615234375,1.9531248807907104,-0.30517578125,-3.356933355331421
0.79150390625,-0.076171875,0.638916015625,-0.1220703050494194,-0.9155272841453552,-1.6479490995407104
0.7879638671875,-0.0833740234375,0.6318359375,0.0,-1.0986328125,0.1831054538488388
0.7685546875,-0.08935546875,0.618896484375,-0.6713866591453552,-0.6103515625,1.6479490995407104
0.7664794921875,-0.07861328125,0.608642578125,-2.197265625,-0.4882812201976776,2.868652105331421
0.77490234375,-0.0635986328125,0.5943603515625,-1.6479490995407104,-0.54931640625,3.417968511581421
0.760009765625,-0.0616455078125,0.60107421875,-1.15966796875,-0.4882812201976776,2.50244140625
0.764404296875,-0.0599365234375,0.5938720703125,-0.3662109076976776,-0.3662109076976776,0.9765624403953552
0.7738037109375,-0.0589599609375,0.609375,-0.6713866591453552,-0.3662109076976776,-0.7934569716453552
0.77685546875,-0.054443359375,0.6275634765625,-0.6713866591453552,0.0610351525247097,-1.9531248807907104
0.7781982421875,-0.03515625,0.60888671875,0.7934569716453552,1.15966796875,-2.685546636581421
0.7740478515625,-0.04638671875,0.6326904296875,3.112792730331421,0.1831054538488388,-5.371093273162842
0.7794189453125,-0.04345703125,0.601806640625,6.530761241912842,-0.4882812201976776,-4.0283203125
0.773193359375,-0.052978515625,0.6142578125,2.807616949081421,-1.8920897245407104,-3.356933355331421
0.775634765625,-0.0704345703125,0.6365966796875,2.563476324081421,-2.685546636581421,-1.6479490995407104
0.788818359375,-0.05859375,0.6495361328125,5.371093273162842,-1.8310545682907104,1.8920897245407104
0.8145751953125,-0.0382080078125,0.626708984375,5.065917491912842,-0.6103515625,7.568358898162842
0.8094482421875,-0.05029296875,0.6175537109375,2.01416015625,0.54931640625,12.329100608825684
0.7861328125,-0.0863037109375,0.628662109375,0.7324218153953552,1.8920897245407104,13.610838890075684
0.7769775390625,-0.090576171875,0.6292724609375,2.685546636581421,2.624511480331421,11.169432640075684
0.7618408203125,-0.07421875,0.6336669921875,4.39453125,1.4038084745407104,7.995604991912842
0.7550048828125,-0.0474853515625,0.6373291015625,1.5869139432907104,-1.03759765625,5.310058116912842
0.7520751953125,-0.047119140625,0.64453125,-1.6479490995407104,-2.868652105331421,3.051757574081421
0.74169921875,-0.0489501953125,0.6324462890625,0.7934569716453552,-2.25830078125,0.1220703050494194
0.736083984375,-0.0689697265625,0.60693359375,-0.6103515625,-1.8920897245407104,-2.50244140625
0.7432861328125,-0.06884765625,0.5899658203125,-0.8544921278953552,-1.5258787870407104,-3.417968511581421
0.7373046875,-0.0784912109375,0.59619140625,0.30517578125,-1.5869139432907104,-3.479003667831421
0.7545166015625,-0.08740234375,0.5987548828125,-2.197265625,-1.4648436307907104,-4.150390625
0.77099609375,-0.0914306640625,0.6207275390625,0.4882812201976776,-0.9155272841453552,-6.469726085662842
0.75927734375,-0.0855712890625,0.649169921875,4.7607421875,-0.1831054538488388,-9.033203125
0.7685546875,-0.0633544921875,0.635986328125,5.981444835662842,0.0,-8.544921875
0.7818603515625,-0.0582275390625,0.65576171875,3.845214605331421,-0.6103515625,-6.408690929412842
0.7799072265625,-0.072265625,0.6646728515625,2.0751953125,-0.1831054538488388,-4.150390625
0.787353515625,-0.08154296875,0.6463623046875,0.1220703050494194,0.6103515625,-2.01416015625
0.7833251953125,-0.0723876953125,0.6314697265625,-0.0610351525247097,1.3427733182907104,-0.3662109076976776
0.7783203125,-0.072998046875,0.6219482421875,-0.1831054538488388,1.5869139432907104,0.7324218153953552
0.771484375,-0.0693359375,0.624755859375,0.0,1.7700194120407104,1.4038084745407104
0.7713623046875,-0.0601806640625,0.6275634765625,0.3662109076976776,1.8920897245407104,1.15966796875
0.763916015625,-0.0604248046875,0.6214599609375,-0.4272460639476776,1.220703125,0.0610351525247097
0.76123046875,-0.05712890625,0.620361328125,0.1831054538488388,-0.0610351525247097,-1.15966796875
0.7603759765625,-0.0672607421875,0.622314453125,0.3662109076976776,-1.4648436307907104,-2.3193359375
0.760498046875,-0.0645751953125,0.634521484375,0.7934569716453552,-2.44140625,-3.295898199081421
0.770263671875,-0.062744140625,0.63525390625,0.1220703050494194,-2.990722417831421,-3.540038824081421
0.7750244140625,-0.0615234375,0.6419677734375,-1.5258787870407104,-2.929687261581421,-3.723144292831421
0.772705078125,-0.070068359375,0.6343994140625,-1.2817381620407104,-2.197265625,-2.685546636581421
0.77001953125,-0.0748291015625,0.6253662109375,-3.540038824081421,-1.4038084745407104,-1.5869139432907104
0.7708740234375,-0.07421875,0.6131591796875,-2.01416015625,-0.1220703050494194,-1.03759765625
0.76806640625,-0.0662841796875,0.61865234375,0.4882812201976776,0.3662109076976776,-1.0986328125
0.7703857421875,-0.0704345703125,0.6170654296875,0.0,0.4272460639476776,-1.220703125
0.765869140625,-0.0772705078125,0.6240234375,1.4038084745407104,0.7324218153953552,-0.9765624403953552
0.7655029296875,-0.076171875,0.6363525390625,1.5869139432907104,1.2817381620407104,-0.8544921278953552
0.764892578125,-0.0771484375,0.641357421875,0.54931640625,1.4038084745407104,-0.2441406100988388
0.7691650390625,-0.0799560546875,0.6351318359375,-0.9155272841453552,1.6479490995407104,0.1831054538488388
0.765625,-0.0810546875,0.6273193359375,-0.4272460639476776,1.6479490995407104,0.1831054538488388
0.7728271484375,-0.0767822265625,0.6219482421875,0.6713866591453552,1.2817381620407104,0.0
0.770751953125,-0.0762939453125,0.6300048828125,1.03759765625,1.03759765625,0.1831054538488388
0.7745361328125,-0.074462890625,0.6265869140625,0.1220703050494194,0.9765624403953552,0.2441406100988388
0.7740478515625,-0.070068359375,0.6297607421875,0.9765624403953552,0.7934569716453552,0.3662109076976776
0.767578125,-0.07080078125,0.63134765625,-0.9765624403953552,0.9765624403953552,-0.2441406100988388
0.765625,-0.0672607421875,0.6236572265625,-0.7934569716453552,0.8544921278953552,-0.4882812201976776
0.76318359375,-0.0667724609375,0.6204833984375,-0.7934569716453552,0.4882812201976776,-0.8544921278953552
0.7684326171875,-0.0645751953125,0.6182861328125,-0.4882812201976776,-0.1831054538488388,-0.9765624403953552
0.769287109375,-0.0665283203125,0.6241455078125,0.7324218153953552,-0.1831054538488388,-1.4038084745407104
0.7696533203125,-0.0692138671875,0.63427734375,0.1220703050494194,-0.2441406100988388,-1.5258787870407104
0.7735595703125,-0.0689697265625,0.6343994140625,-0.9155272841453552,0.1831054538488388,-1.2817381620407104
0.7664794921875,-0.067626953125,0.6246337890625,-0.4272460639476776,0.0610351525247097,-0.9155272841453552
0.76611328125,-0.0718994140625,0.62109375,-0.7934569716453552,-0.1220703050494194,-0.7934569716453552
0.7708740234375,-0.0709228515625,0.6275634765625,-0.4272460639476776,-0.30517578125,-1.4038084745407104
0.7769775390625,-0.069091796875,0.6290283203125,1.220703125,-0.4882812201976776,-1.220703125
0.77880859375,-0.0718994140625,0.6317138671875,-0.8544921278953552,-1.4038084745407104,-1.0986328125
1.305419921875,-0.258544921875,0.9798583984375,13.916014671325684,1.8310545682907104,-16.90673828125
1.3770751953125,-0.2318115234375,1.0220947265625,-1.03759765625,2.807616949081421,-20.446775436401367
1.37451171875,-0.337646484375,0.9571533203125,16.54052734375,2.01416015625,-14.587401390075684
1.382568359375,-0.3297119140625,0.9954833984375,28.991697311401367,-0.2441406100988388,-2.807616949081421
1.3438720703125,-0.32666015625,1.0120849609375,13.977049827575684,-2.197265625,0.4882812201976776
1.3409423828125,-0.3507080078125,0.9185791015625,3.112792730331421,-5.920409679412842,6.347655773162842
1.32177734375,-0.349853515625,0.9398193359375,14.892577171325684,-6.958007335662842,12.451170921325684
1.2513427734375,-0.3236083984375,0.991943359375,8.1787109375,-4.0283203125,14.343260765075684
1.2191162109375,-0.3511962890625,0.9444580078125,-4.69970703125,-2.990722417831421,16.4794921875
1.1842041015625,-0.3392333984375,0.8890380859375,4.2724609375,-3.051757574081421,23.376462936401367
1.1075439453125,-0.2979736328125,0.853271484375,3.479003667831421,-7.019042491912842,26.977537155151367
1.064697265625,-0.2745361328125,0.7880859375,-5.798339366912842,-14.465331077575684,28.015134811401367
0.9822998046875,-0.2733154296875,0.748046875,-4.39453125,-18.37158203125,28.564451217651367
0.8916015625,-0.2259521484375,0.7559814453125,1.03759765625,-19.83642578125,27.648923873901367
0.840576171875,-0.1673583984375,0.6983642578125,-3.234863042831421,-16.17431640625,22.827146530151367
0.770751953125,-0.164306640625,0.5938720703125,1.8920897245407104,-12.695311546325684,15.563963890075684
0.6339111328125,-0.1563720703125,0.4970703125,18.4326171875,-12.451170921325684,6.469726085662842
0.5478515625,-0.1077880859375,0.5152587890625,10.864256858825684,-10.009765625,-5.126952648162842
0.490234375,-0.0941162109375,0.4259033203125,11.535643577575684,-5.371093273162842,-13.549803733825684
0.435302734375,-0.1102294921875,0.30126953125,26.184080123901367,-3.845214605331421,-12.145995140075684
0.3807373046875,-0.072509765625,0.2894287109375,18.85986328125,-4.8828125,-11.230467796325684
0.3509521484375,-0.0528564453125,0.29736328125,8.7890625,-2.25830078125,-9.3994140625
0.3316650390625,-0.0977783203125,0.22705078125,13.305663108825684,-4.69970703125,2.929687261581421
0.3709716796875,-0.0745849609375,0.2470703125,-1.5258787870407104,-9.521484375,4.150390625
0.5831298828125,-0.099853515625,0.4967041015625,1.7700194120407104,-15.869139671325684,-1.4648436307907104
0.664794921875,-0.104248046875,0.5284423828125,11.901854515075684,-15.502928733825684,-7.080077648162842
0.708740234375,-0.1026611328125,0.582763671875,17.76123046875,-14.099120140075684,-9.33837890625
0.73095703125,-0.1141357421875,0.6270751953125,13.061522483825684,-11.596678733825684,-7.995604991912842
0.7489013671875,-0.1209716796875,0.6422119140625,8.11767578125,-8.1787109375,-7.690429210662842
0.7667236328125,-0.1265869140625,0.684326171875,10.559081077575684,-1.7700194120407104,-7.324218273162842
0.759521484375,-0.1318359375,0.66455078125,9.1552734375,2.44140625,-5.554198741912842
0.795166015625,-0.155029296875,0.64208984375,1.15966796875,2.01416015625,-4.21142578125
0.787841796875,-0.1644287109375,0.6937255859375,-1.15966796875,1.4648436307907104,-0.3662109076976776
0.7899169921875,-0.162353515625,0.6856689453125,2.3193359375,2.685546636581421,1.7089842557907104
0.767822265625,-0.1583251953125,0.6937255859375,0.3662109076976776,2.25830078125,2.50244140625
0.745361328125,-0.1590576171875,0.677001953125,-5.249022960662842,1.03759765625,3.845214605331421
0.718994140625,-0.1746826171875,0.654052734375,-5.065917491912842,-0.1220703050494194,4.638671875
0.69775390625,-0.1693115234375,0.640869140625,-0.4882812201976776,1.2817381620407104,4.57763671875
0.701416015625,-0.17431640625,0.6397705078125,-2.50244140625,1.8920897245407104,3.784179449081421
0.70703125,-0.1793212890625,0.65283203125,-0.9155272841453552,2.807616949081421,3.540038824081421
0.7073974609375,-0.177978515625,0.64697265625,2.746581792831421,3.417968511581421,2.563476324081421
0.7169189453125,-0.1820068359375,0.627197265625,0.9155272841453552,1.4648436307907104,1.7700194120407104
0.7188720703125,-0.1927490234375,0.6463623046875,2.3193359375,-0.1220703050494194,1.8310545682907104
0.7159423828125,-0.1766357421875,0.6607666015625,1.4038084745407104,-0.2441406100988388,1.15966796875
0.728759765625,-0.16455078125,0.650390625,-1.220703125,-0.30517578125,0.3662109076976776
0.721923828125,-0.1658935546875,0.663330078125,-0.6103515625,0.2441406100988388,-1.03759765625
0.7254638671875,-0.1812744140625,0.6533203125,-0.1220703050494194,0.8544921278953552,-1.8310545682907104
0.728515625,-0.1778564453125,0.649658203125,-1.7089842557907104,1.4648436307907104,-3.234863042831421
0.73046875,-0.1806640625,0.64697265625,-0.9155272841453552,1.2817381620407104,-4.2724609375
0.73583984375,-0.180908203125,0.641845703125,-0.1220703050494194,0.4882812201976776,-4.7607421875
0.738525390625,-0.1876220703125,0.64599609375,-0.4272460639476776,0.6103515625,-4.69970703125
0.7401123046875,-0.1904296875,0.6463623046875,-1.4648436307907104,0.9155272841453552,-4.21142578125
0.7401123046875,-0.1849365234375,0.6412353515625,-1.7700194120407104,1.15966796875,-3.173827886581421
0.74853515625,-0.1829833984375,0.640869140625,-2.685546636581421,1.4648436307907104,-1.5258787870407104
0.7515869140625,-0.184814453125,0.639404296875,-2.685546636581421,1.8920897245407104,-1.2817381620407104
0.7471923828125,-0.1802978515625,0.63623046875,-2.3193359375,2.563476324081421,-0.7934569716453552
0.7447509765625,-0.1783447265625,0.630615234375,-2.685546636581421,2.25830078125,-0.3662109076976776
0.7501220703125,-0.1724853515625,0.6273193359375,-1.220703125,1.7089842557907104,-0.2441406100988388
0.7420654296875,-0.170654296875,0.641845703125,-0.9765624403953552,1.5258787870407104,-0.3662109076976776
0.74853515625,-0.161865234375,0.640869140625,-2.13623046875,1.4648436307907104,-0.6103515625
0.747314453125,-0.166015625,0.6397705078125,-1.6479490995407104,1.5869139432907104,-0.8544921278953552
0.74560546875,-0.1700439453125,0.630615234375,-0.4882812201976776,1.3427733182907104,-1.15966796875
0.7398681640625,-0.17578125,0.62939453125,-0.4882812201976776,0.4272460639476776,-1.5869139432907104
0.743408203125,-0.1744384765625,0.6324462890625,0.7324218153953552,-0.6103515625,-1.8310545682907104
0.74462890625,-0.1756591796875,0.639404296875,1.03759765625,-0.6713866591453552,-1.5258787870407104
0.7392578125,-0.1737060546875,0.6416015625,0.30517578125,-0.3662109076976776,-0.9155272841453552
0.7408447265625,-0.1788330078125,0.6357421875,-0.30517578125,0.3662109076976776,-0.54931640625
0.7415771484375,-0.1865234375,0.638671875,-0.7934569716453552,1.4038084745407104,-0.8544921278953552
0.7449951171875,-0.1865234375,0.6412353515625,1.15966796875,1.8310545682907104,-0.6103515625
0.74072265625,-0.1885986328125,0.6361083984375,0.6103515625,1.9531248807907104,-0.1220703050494194
0.737548828125,-0.1822509765625,0.638671875,0.4272460639476776,1.7700194120407104,0.2441406100988388
0.7410888671875,-0.1724853515625,0.6383056640625,1.4648436307907104,1.4038084745407104,0.4272460639476776
0.739501953125,-0.1712646484375,0.655029296875,2.3193359375,0.8544921278953552,0.30517578125
0.7398681640625,-0.1690673828125,0.6524658203125,0.9765624403953552,0.7324218153953552,0.0
0.738525390625,-0.173828125,0.6475830078125,-0.7934569716453552,0.4882812201976776,0.1220703050494194
0.741943359375,-0.171142578125,0.6373291015625,-1.03759765625,0.7934569716453552,-0.2441406100988388
0.7430419921875,-0.179931640625,0.6182861328125,0.0,1.03759765625,-0.9765624403953552
0.7393798828125,-0.183349609375,0.62158203125,0.2441406100988388,1.4038084745407104,-1.7700194120407104
0.744140625,-0.1934814453125,0.6185302734375,0.3662109076976776,2.25830078125,-1.5258787870407104
0.7445068359375,-0.1881103515625,0.620849609375,1.6479490995407104,3.479003667831421,-1.6479490995407104
0.7447509765625,-0.1839599609375,0.620361328125,3.967284917831421,4.21142578125,-1.8310545682907104
0.74169921875,-0.1832275390625,0.630126953125,3.234863042831421,3.906249761581421,-2.197265625
0.7491455078125,-0.189208984375,0.638671875,1.8310545682907104,2.990722417831421,-2.44140625
0.7548828125,-0.1859130859375,0.650390625,1.9531248807907104,2.197265625,-2.3193359375
0.7552490234375,-0.1875,0.6358642578125,0.6713866591453552,2.0751953125,-2.44140625
0.7462158203125,-0.1898193359375,0.6292724609375,-0.4272460639476776,1.03759765625,-2.3193359375
0.7496337890625,-0.19091796875,0.6290283203125,-0.9765624403953552,0.4882812201976776,-2.44140625
0.754638671875,-0.1993408203125,0.626953125,-0.4272460639476776,0.54931640625,-2.563476324081421
0.7584228515625,-0.198486328125,0.6229248046875,-0.6713866591453552,0.6713866591453552,-2.685546636581421
0.76025390625,-0.205322265625,0.6201171875,-1.03759765625,1.0986328125,-2.197265625
0.7554931640625,-0.198974609375,0.62158203125,-1.220703125,0.7934569716453552,-1.220703125
0.750732421875,-0.1944580078125,0.6295166015625,-1.15966796875,0.7324218153953552,-0.4882812201976776
0.7554931640625,-0.1905517578125,0.6259765625,-0.8544921278953552,0.9765624403953552,-0.30517578125
0.7523193359375,-0.1824951171875,0.624267578125,-0.8544921278953552,0.8544921278953552,-0.4882812201976776
0.7506103515625,-0.1905517578125,0.61669921875,-0.30517578125,0.0610351525247097,-0.4882812201976776
0.7550048828125,-0.1893310546875,0.620361328125,0.0,-0.7324218153953552,-0.1831054538488388
0.76318359375,-0.18896484375,0.628173828125,0.30517578125,-1.4038084745407104,0.6103515625
0.761962890625,-0.186767578125,0.6318359375,-1.03759765625,-1.2817381620407104,1.3427733182907104
0.7574462890625,-0.178955078125,0.6243896484375,-1.0986328125,-0.8544921278953552,1.5258787870407104
0.754150390625,-0.1844482421875,0.6173095703125,-0.1220703050494194,-0.4272460639476776,1.220703125
0.752685546875,-0.1826171875,0.6248779296875,0.4272460639476776,-0.4882812201976776,1.03759765625
0.75048828125,-0.1876220703125,0.6280517578125,0.9765624403953552,-0.4882812201976776,1.5258787870407104
0.751708984375,-0.1884765625,0.6280517578125,-0.4882812201976776,-0.54931640625,1.7089842557907104
0.74853515625,-0.1878662109375,0.6346435546875,-0.2441406100988388,-0.6103515625,1.8310545682907104
0.749267578125,-0.1773681640625,0.6279296875,-1.3427733182907104,-0.7324218153953552,1.6479490995407104
0.7406005859375,-0.1724853515625,0.6265869140625,-0.4882812201976776,-0.7324218153953552,1.4648436307907104
0.746337890625,-0.178955078125,0.6212158203125,-0.3662109076976776,-0.4882812201976776,0.9155272841453552
0.74951171875,-0.179443359375,0.6373291015625,-0.1831054538488388,0.0,0.0610351525247097
0.7515869140625,-0.1806640625,0.6302490234375,0.30517578125,0.0610351525247097,-0.1831054538488388
0.74951171875,-0.190673828125,0.6312255859375,-1.4648436307907104,-0.6103515625,-0.1220703050494194
0.7491455078125,-0.1878662109375,0.63623046875,-1.15966796875,-0.6713866591453552,0.2441406100988388
0.7449951171875,-0.1824951171875,0.6363525390625,-1.15966796875,-0.4272460639476776,0.7934569716453552
0.7452392578125,-0.1776123046875,0.6298828125,-1.3427733182907104,-0.0610351525247097,0.1220703050494194
1.3450927734375,-0.2066650390625,1.0008544921875,1.7700194120407104,-5.737304210662842,-22.216794967651367
1.4000244140625,-0.1744384765625,0.974365234375,7.141112804412842,-6.652831554412842,-17.63916015625
1.4627685546875,-0.1630859375,0.969482421875,8.72802734375,-9.3994140625,-14.831542015075684
1.4759521484375,-0.1766357421875,1.0423583984375,12.329100608825684,-11.596678733825684,-11.047362327575684
1.4208984375,-0.199462890625,1.0703125,8.9111328125,-11.413573265075684,-8.60595703125
1.382568359375,-0.249267578125,0.957275390625,7.141112804412842,-7.873534679412842,-1.5258787870407104
1.3526611328125,-0.2607421875,0.91162109375,12.573241233825684,-3.845214605331421,8.6669921875
1.2857666015625,-0.2257080078125,0.9244384765625,6.530761241912842,-2.685546636581421,15.991209983825684
1.1749267578125,-0.2430419921875,0.886962890625,-2.44140625,-4.2724609375,19.10400390625
1.1156005859375,-0.2464599609375,0.799072265625,10.498045921325684,-6.164550304412842,21.240232467651367
1.0780029296875,-0.2127685546875,0.8389892578125,16.78466796875,-8.23974609375,22.277830123901367
0.9971923828125,-0.1986083984375,0.8143310546875,5.371093273162842,-12.390135765075684,17.63916015625
0.939453125,-0.1971435546875,0.726318359375,7.324218273162842,-16.845703125,15.686034202575684
0.84765625,-0.17822265625,0.6937255859375,20.874021530151367,-17.08984375,15.136717796325684
0.7039794921875,-0.1324462890625,0.6636962890625,23.803709030151367,-15.563963890075684,4.94384765625
0.7188720703125,-0.10693359375,0.572998046875,10.742186546325684,-15.686034202575684,-5.126952648162842
0.6649169921875,-0.1170654296875,0.5379638671875,27.099607467651367,-12.695311546325684,-10.437010765075684
0.4769287109375,-0.1328125,0.4461669921875,49.743648529052734,-7.751464366912842,-19.53125
0.3729248046875,-0.087646484375,0.321044921875,38.26904296875,-13.305663108825684,-28.381345748901367
0.37353515625,-0.0908203125,0.32177734375,16.4794921875,-19.775390625,-26.611326217651367
0.3546142578125,-0.0965576171875,0.306640625,25.634763717651367,-17.51708984375,-21.728513717651367
0.3216552734375,-0.083984375,0.267578125,40.893550872802734,-10.803221702575684,-16.7236328125
0.382080078125,-0.0645751953125,0.2977294921875,20.629880905151367,-6.958007335662842,-12.756346702575684
0.3477783203125,-0.0885009765625,0.371337890625,5.859374523162842,-2.563476324081421,-6.103515148162842
0.3916015625,-0.1331787109375,0.31982421875,4.0283203125,-1.4648436307907104,1.0986328125
0.4871826171875,-0.1273193359375,0.315185546875,7.202147960662842,-3.784179449081421,7.324218273162842
0.499267578125,-0.0833740234375,0.4267578125,1.0986328125,-3.662109136581421,11.718749046325684
0.575439453125,-0.1224365234375,0.4791259765625,-12.817381858825684,-4.33349609375,12.268065452575684
0.6668701171875,-0.14892578125,0.511474609375,-3.662109136581421,-2.868652105331421,12.084959983825684
0.701171875,-0.1337890625,0.5994873046875,8.30078125,1.0986328125,10.192870140075684
0.7178955078125,-0.1224365234375,0.6474609375,0.30517578125,3.662109136581421,5.249022960662842
0.7625732421875,-0.1279296875,0.636474609375,-0.8544921278953552,1.8920897245407104,5.615233898162842
0.7489013671875,-0.1292724609375,0.65673828125,5.187987804412842,-0.1831054538488388,5.737304210662842
0.7276611328125,-0.1832275390625,0.6517333984375,-6.408690929412842,-2.868652105331421,1.03759765625
0.7484130859375,-0.1820068359375,0.6295166015625,-2.01416015625,-0.1831054538488388,-0.30517578125
0.748779296875,-0.165771484375,0.6483154296875,-1.5869139432907104,-0.3662109076976776,0.4882812201976776
0.745849609375,-0.1741943359375,0.6439208984375,-5.310058116912842,0.0,0.54931640625
0.742919921875,-0.179931640625,0.628173828125,-1.4038084745407104,0.6103515625,0.2441406100988388
0.738525390625,-0.1971435546875,0.6318359375,1.7089842557907104,0.3662109076976776,-0.1220703050494194
0.7310791015625,-0.187255859375,0.642578125,-0.6713866591453552,0.2441406100988388,-0.9765624403953552
0.737548828125,-0.1827392578125,0.6295166015625,-0.4272460639476776,0.4882812201976776,-1.15966796875
0.72900390625,-0.1895751953125,0.6383056640625,0.54931640625,0.9155272841453552,-1.4038084745407104
0.73486328125,-0.193359375,0.642578125,-0.1831054538488388,0.7934569716453552,-1.5258787870407104
0.7410888671875,-0.195556640625,0.6522216796875,-1.8310545682907104,0.9155272841453552,-1.3427733182907104
0.74853515625,-0.1812744140625,0.639404296875,-0.7934569716453552,0.54931640625,-1.3427733182907104
0.730712890625,-0.1922607421875,0.648193359375,-0.4882812201976776,1.15966796875,-0.4272460639476776
0.7369384765625,-0.177734375,0.637939453125,-0.4882812201976776,1.03759765625,0.30517578125
0.7364501953125,-0.1783447265625,0.6444091796875,-3.112792730331421,0.6713866591453552,0.30517578125
0.741455078125,-0.1680908203125,0.636962890625,-1.9531248807907104,0.8544921278953552,-0.0610351525247097
0.73095703125,-0.178466796875,0.6378173828125,0.7324218153953552,1.15966796875,-0.6713866591453552
0.7430419921875,-0.1663818359375,0.636962890625,0.0610351525247097,0.7934569716453552,-1.03759765625
0.7484130859375,-0.1702880859375,0.6456298828125,-0.8544921278953552,-0.9765624403953552,0.0
0.7406005859375,-0.17724609375,0.6373291015625,-0.3662109076976776,-0.30517578125,-0.54931640625
0.7349853515625,-0.1895751953125,0.62890625,1.3427733182907104,0.1220703050494194,-0.1220703050494194
0.7352294921875,-0.1748046875,0.6378173828125,0.4272460639476776,0.6103515625,0.1831054538488388
0.7374267578125,-0.1767578125,0.641357421875,0.7324218153953552,0.54931640625,0.4882812201976776
0.7349853515625,-0.171142578125,0.6494140625,0.4272460639476776,0.6103515625,0.0610351525247097
0.7332763671875,-0.1793212890625,0.643310546875,-0.4882812201976776,0.4272460639476776,0.0
0.73828125,-0.1693115234375,0.645751953125,0.0610351525247097,0.4272460639476776,0.3662109076976776
0.741455078125,-0.1646728515625,0.6463623046875,-0.9155272841453552,0.0610351525247097,0.2441406100988388
0.7470703125,-0.168701171875,0.6378173828125,-0.2441406100988388,-0.2441406100988388,0.0610351525247097
0.743896484375,-0.1702880859375,0.642333984375,0.2441406100988388,-0.1831054538488388,-0.30517578125
0.7374267578125,-0.173828125,0.6429443359375,-0.4882812201976776,-0.1220703050494194,-0.54931640625
0.7401123046875,-0.1739501953125,0.6363525390625,-0.0610351525247097,-0.54931640625,-0.2441406100988388
0.7420654296875,-0.1673583984375,0.646728515625,0.4272460639476776,-0.8544921278953552,0.2441406100988388
0.7347412109375,-0.1741943359375,0.653564453125,-1.15966796875,-0.4882812201976776,-0.1831054538488388
0.73388671875,-0.1788330078125,0.6446533203125,-0.54931640625,0.1831054538488388,-0.0610351525247097
0.735107421875,-0.1788330078125,0.640380859375,-0.7324218153953552,0.0,-0.1220703050494194
0.7359619140625,-0.1661376953125,0.642822265625,-0.1831054538488388,-0.54931640625,-0.8544921278953552
0.7410888671875,-0.1685791015625,0.6500244140625,-0.1831054538488388,-0.54931640625,-1.15966796875
0.737060546875,-0.1796875,0.6492919921875,-0.1220703050494194,-0.4882812201976776,-1.220703125
0.73779296875,-0.181396484375,0.6368408203125,-0.3662109076976776,-0.54931640625,-1.5258787870407104
0.7379150390625,-0.18115234375,0.6392822265625,0.54931640625,-0.8544921278953552,-1.3427733182907104
0.733642578125,-0.1796875,0.65478515625,0.7934569716453552,-0.8544921278953552,-1.0986328125
0.7342529296875,-0.1846923828125,0.6563720703125,0.4882812201976776,-0.3662109076976776,-0.6713866591453552
0.7335205078125,-0.182861328125,0.6473388671875,-1.4648436307907104,0.6103515625,0.0
0.7376708984375,-0.1771240234375,0.6402587890625,-0.30517578125,0.8544921278953552,0.2441406100988388
0.7408447265625,-0.1708984375,0.637451171875,1.03759765625,0.7324218153953552,-0.30517578125
0.73828125,-0.1717529296875,0.6453857421875,1.5869139432907104,0.2441406100988388,-0.6713866591453552
0.737060546875,-0.1812744140625,0.64697265625,1.8920897245407104,0.3662109076976776,-0.6103515625
0.733642578125,-0.1844482421875,0.6488037109375,-0.8544921278953552,0.6713866591453552,0.1220703050494194
0.737060546875,-0.17626953125,0.647705078125,-0.30517578125,0.7934569716453552,0.0
0.738037109375,-0.171875,0.6468505859375,1.0986328125,0.9765624403953552,-0.4882812201976776
0.7322998046875,-0.1788330078125,0.643798828125,-0.54931640625,0.54931640625,-0.7934569716453552
0.733154296875,-0.1846923828125,0.638916015625,0.6713866591453552,0.6103515625,-0.6713866591453552
0.7391357421875,-0.1800537109375,0.6441650390625,0.8544921278953552,0.4882812201976776,-0.7934569716453552
0.7374267578125,-0.175048828125,0.64501953125,0.0610351525247097,0.54931640625,-0.7934569716453552
0.744140625,-0.1773681640625,0.6435546875,1.4038084745407104,0.1220703050494194,-0.3662109076976776
0.7373046875,-0.1834716796875,0.6558837890625,0.3662109076976776,0.30517578125,-0.1831054538488388
0.73876953125,-0.1763916015625,0.643310546875,0.0610351525247097,0.6713866591453552,0.6103515625
0.7421875,-0.17236328125,0.646484375,-0.8544921278953552,0.1220703050494194,1.0986328125
0.7410888671875,-0.172119140625,0.6519775390625,-0.0610351525247097,0.1220703050494194,0.4882812201976776
0.7391357421875,-0.1807861328125,0.6466064453125,-0.1831054538488388,-0.1831054538488388,-0.1831054538488388
0.73388671875,-0.185546875,0.650146484375,-0.9765624403953552,-0.3662109076976776,-0.0610351525247097
0.7393798828125,-0.1807861328125,0.6407470703125,-0.8544921278953552,-0.3662109076976776,0.30517578125
0.7333984375,-0.1705322265625,0.650634765625,-1.0986328125,-0.1220703050494194,0.6103515625
0.7366943359375,-0.1680908203125,0.6468505859375,-1.220703125,0.3662109076976776,0.6103515625
0.731201171875,-0.17138671875,0.6500244140625,-1.5258787870407104,0.6103515625,0.4882812201976776
0.7353515625,-0.1668701171875,0.639892578125,-0.6713866591453552,0.8544921278953552,0.30517578125
0.7353515625,-0.16162109375,0.639892578125,-0.4272460639476776,0.3662109076976776,0.1220703050494194
0.7364501953125,-0.16064453125,0.6427001953125,-0.30517578125,0.2441406100988388,-0.7324218153953552
0.7362060546875,-0.1689453125,0.6427001953125,0.2441406100988388,0.8544921278953552,-1.5869139432907104
0.737060546875,-0.17626953125,0.64697265625,1.03759765625,0.7934569716453552,-1.5869139432907104
0.7427978515625,-0.174072265625,0.646728515625,0.54931640625,0.54931640625,-0.9765624403953552
0.7454833984375,-0.175048828125,0.6485595703125,-0.1831054538488388,0.4882812201976776,-0.4882812201976776
0.7457275390625,-0.173828125,0.646728515625,-0.4272460639476776,0.3662109076976776,-0.1220703050494194
0.742431640625,-0.1771240234375,0.64453125,-0.1220703050494194,0.4272460639476776,0.1220703050494194
0.7391357421875,-0.1744384765625,0.643310546875,-1.220703125,0.6103515625,0.0
0.7362060546875,-0.163818359375,0.6414794921875,-0.4272460639476776,0.6103515625,0.3662109076976776
1.3482666015625,-0.107666015625,1.1468505859375,8.60595703125,-18.06640625,-18.12744140625
1.36376953125,-0.19873046875,1.1595458984375,9.3994140625,-14.465331077575684,-8.36181640625
1.3272705078125,-0.236572265625,1.14208984375,13.061522483825684,-8.36181640625,6.347655773162842
1.2708740234375,-0.24755859375,1.1085205078125,4.21142578125,-1.5869139432907104,12.023924827575684
1.220458984375,-0.261474609375,1.027099609375,9.3994140625,4.45556640625,15.563963890075684
1.1722412109375,-0.2559814453125,0.99609375,13.305663108825684,5.737304210662842,18.9208984375
1.1177978515625,-0.2242431640625,1.0479736328125,0.0,5.310058116912842,17.02880859375
1.087158203125,-0.23291015625,0.9783935546875,-8.1787109375,5.737304210662842,15.930174827575684
1.058837890625,-0.219970703125,0.8665771484375,3.906249761581421,5.249022960662842,20.568845748901367
0.953125,-0.1663818359375,0.8314208984375,4.08935546875,3.051757574081421,19.10400390625
0.8974609375,-0.155517578125,0.78662109375,-5.187987804412842,1.7089842557907104,13.854979515075684
0.6611328125,-0.1224365234375,0.531494140625,30.761716842651367,2.44140625,-11.962889671325684
0.5316162109375,-0.1859130859375,0.3702392578125,43.457027435302734,0.4882812201976776,-11.596678733825684
0.44873046875,-0.1123046875,0.3533935546875,47.363277435302734,-3.540038824081421,-12.512206077575684
0.458251953125,-0.0400390625,0.356689453125,28.259275436401367,-0.9765624403953552,-17.39501953125
0.4339599609375,-0.062744140625,0.30615234375,19.775390625,4.57763671875,-16.29638671875
0.339599609375,-0.0921630859375,0.234130859375,28.625486373901367,6.408690929412842,-10.681151390075684
0.3201904296875,-0.083740234375,0.177490234375,26.733396530151367,2.746581792831421,-4.39453125
0.3212890625,-0.01513671875,0.2642822265625,5.737304210662842,0.4272460639476776,0.3662109076976776
0.3780517578125,-0.0518798828125,0.258056640625,-6.774901866912842,-0.7934569716453552,5.981444835662842
0.4576416015625,-0.08349609375,0.253173828125,1.03759765625,-3.295898199081421,11.901854515075684
0.485595703125,-0.0936279296875,0.3629150390625,1.2817381620407104,-6.408690929412842,15.624999046325684
0.613525390625,-0.0758056640625,0.4259033203125,-5.737304210662842,-9.09423828125,13.732909202575684
0.689697265625,-0.1402587890625,0.51171875,-4.08935546875,-7.751464366912842,8.48388671875
0.732666015625,-0.1109619140625,0.584716796875,5.0048828125,-3.356933355331421,5.065917491912842
0.7783203125,-0.1263427734375,0.6214599609375,2.746581792831421,-0.3662109076976776,3.356933355331421
0.798095703125,-0.1136474609375,0.623291015625,-2.929687261581421,1.6479490995407104,2.990722417831421
0.78369140625,-0.125,0.6129150390625,-7.202147960662842,1.3427733182907104,5.493163585662842
0.7890625,-0.1119384765625,0.5814208984375,-9.46044921875,0.30517578125,4.7607421875
0.794189453125,-0.1138916015625,0.5960693359375,-8.72802734375,0.7324218153953552,3.479003667831421
0.802734375,-0.12158203125,0.60498046875,-14.038084983825684,1.15966796875,2.01416015625
0.8021240234375,-0.123779296875,0.6162109375,-13.549803733825684,2.868652105331421,-0.1220703050494194
0.744873046875,-0.1307373046875,0.6065673828125,-8.48388671875,5.187987804412842,-1.9531248807907104
0.7685546875,-0.1134033203125,0.5540771484375,-10.559081077575684,4.0283203125,-2.197265625
0.796875,-0.1011962890625,0.5634765625,-12.634276390075684,2.3193359375,-2.563476324081421
0.7969970703125,-0.095458984375,0.574462890625,-6.958007335662842,2.13623046875,-3.540038824081421
0.79248046875,-0.108642578125,0.572265625,0.6713866591453552,1.220703125,-2.807616949081421
0.794921875,-0.1092529296875,0.5797119140625,-2.38037109375,0.1220703050494194,-2.685546636581421
0.7908935546875,-0.127197265625,0.5867919921875,-0.9155272841453552,-0.54931640625,-2.38037109375
0.7882080078125,-0.1407470703125,0.5931396484375,1.9531248807907104,-0.4882812201976776,-2.563476324081421
0.779052734375,-0.1488037109375,0.593017578125,1.5258787870407104,0.1831054538488388,-2.50244140625
0.78564453125,-0.1512451171875,0.581298828125,2.0751953125,0.1220703050494194,-2.25830078125
0.785400390625,-0.141845703125,0.60498046875,5.920409679412842,-0.54931640625,-1.8920897245407104
0.7950439453125,-0.1312255859375,0.60400390625,3.662109136581421,-1.220703125,-1.4038084745407104
0.7958984375,-0.123779296875,0.60498046875,1.8310545682907104,-2.0751953125,1.03759765625
0.81005859375,-0.1240234375,0.5938720703125,3.906249761581421,-2.50244140625,4.33349609375
0.814453125,-0.1253662109375,0.5958251953125,4.57763671875,-2.685546636581421,5.432128429412842
0.788818359375,-0.1300048828125,0.5721435546875,6.896972179412842,-1.7089842557907104,6.591796398162842
0.798095703125,-0.1192626953125,0.53564453125,5.859374523162842,-1.220703125,9.27734375
0.8155517578125,-0.1331787109375,0.5631103515625,5.493163585662842,-0.1220703050494194,9.521484375
0.8067626953125,-0.145751953125,0.6026611328125,7.019042491912842,3.295898199081421,7.568358898162842
0.816650390625,-0.12841796875,0.5780029296875,9.521484375,3.723144292831421,8.6669921875
0.804443359375,-0.0938720703125,0.584716796875,6.958007335662842,0.7934569716453552,12.390135765075684
0.806884765625,-0.0819091796875,0.596435546875,4.7607421875,-2.3193359375,16.78466796875
0.7886962890625,-0.0810546875,0.625,2.38037109375,-2.807616949081421,19.83642578125
0.789306640625,-0.09765625,0.6341552734375,-0.1831054538488388,-1.5869139432907104,18.9208984375
0.7799072265625,-0.087646484375,0.6348876953125,1.3427733182907104,-0.9765624403953552,13.916014671325684
0.7730712890625,-0.074462890625,0.6126708984375,5.920409679412842,-3.356933355331421,9.21630859375
0.767822265625,-0.074951171875,0.6083984375,4.69970703125,-6.896972179412842,5.249022960662842
0.7501220703125,-0.0977783203125,0.6171875,3.479003667831421,-8.72802734375,2.01416015625
0.7335205078125,-0.1312255859375,0.615234375,2.25830078125,-8.23974609375,-1.2817381620407104
0.734375,-0.1453857421875,0.606689453125,1.9531248807907104,-6.652831554412842,-4.21142578125
0.7266845703125,-0.152099609375,0.6112060546875,3.173827886581421,-4.7607421875,-6.713866710662842
0.7222900390625,-0.140869140625,0.6060791015625,3.234863042831421,-2.38037109375,-8.36181640625
0.73486328125,-0.1385498046875,0.5997314453125,-0.1831054538488388,-1.220703125,-8.9111328125
0.7564697265625,-0.1636962890625,0.611083984375,-1.8920897245407104,0.30517578125,-18.798828125
0.7646484375,-0.14501953125,0.6168212890625,0.4272460639476776,-2.624511480331421,-17.02880859375
0.77978515625,-0.1534423828125,0.6251220703125,-2.0751953125,-3.662109136581421,-15.563963890075684
0.790771484375,-0.1873779296875,0.666259765625,-4.39453125,-4.57763671875,-15.197752952575684
0.7662353515625,-0.192138671875,0.6690673828125,-3.540038824081421,-3.295898199081421,-16.05224609375
0.7734375,-0.180419921875,0.6346435546875,-1.3427733182907104,-1.03759765625,-13.427733421325684
0.765625,-0.1568603515625,0.6348876953125,-4.82177734375,0.30517578125,-11.291502952575684
0.7672119140625,-0.1470947265625,0.62353515625,-5.0048828125,2.38037109375,-8.544921875
0.77587890625,-0.147705078125,0.6168212890625,-3.662109136581421,2.44140625,-4.638671875
0.781005859375,-0.143310546875,0.6160888671875,-2.01416015625,1.2817381620407104,-1.03759765625
0.7965087890625,-0.1318359375,0.6209716796875,2.807616949081421,0.0,2.13623046875
0.7919921875,-0.1197509765625,0.634521484375,3.479003667831421,-1.03759765625,5.554198741912842
0.7930908203125,-0.1307373046875,0.627685546875,2.50244140625,-1.4038084745407104,8.36181640625
0.7733154296875,-0.14599609375,0.62353515625,4.45556640625,-0.4882812201976776,10.314940452575684
0.7618408203125,-0.1544189453125,0.6053466796875,4.638671875,0.4272460639476776,11.169432640075684
0.747802734375,-0.1553955078125,0.6038818359375,4.33349609375,0.30517578125,10.620116233825684
0.741455078125,-0.158447265625,0.61181640625,4.39453125,-0.3662109076976776,8.85009765625
0.7462158203125,-0.156982421875,0.620849609375,3.234863042831421,-0.54931640625,7.080077648162842
0.736328125,-0.162841796875,0.629638671875,2.0751953125,0.4882812201976776,4.7607421875
0.7437744140625,-0.156005859375,0.6163330078125,2.44140625,1.5869139432907104,2.624511480331421
0.7523193359375,-0.159423828125,0.619140625,0.6103515625,1.2817381620407104,0.1831054538488388
0.76025390625,-0.15283203125,0.629638671875,3.784179449081421,1.15966796875,-1.5869139432907104
0.76513671875,-0.1663818359375,0.635009765625,1.5869139432907104,1.220703125,-2.197265625
0.7647705078125,-0.176513671875,0.6341552734375,-2.44140625,1.5258787870407104,-2.13623046875
0.765380859375,-0.173095703125,0.627685546875,-1.8920897245407104,1.5869139432907104,-1.6479490995407104
0.7640380859375,-0.16015625,0.615478515625,-2.13623046875,1.220703125,-1.5869139432907104
0.7611083984375,-0.1524658203125,0.6221923828125,-2.624511480331421,0.3662109076976776,-1.5869139432907104
0.769287109375,-0.1510009765625,0.6180419921875,-1.2817381620407104,0.1831054538488388,-1.4648436307907104
0.765625,-0.158447265625,0.6202392578125,-2.3193359375,0.6713866591453552,-1.7700194120407104
0.76806640625,-0.1546630859375,0.6175537109375,-2.990722417831421,0.9765624403953552,-1.7089842557907104
0.7645263671875,-0.14990234375,0.6142578125,-1.4038084745407104,1.4648436307907104,-1.3427733182907104
0.76708984375,-0.149169921875,0.6134033203125,-2.3193359375,1.03759765625,-1.0986328125
0.7650146484375,-0.14599609375,0.61962890625,-1.6479490995407104,0.54931640625,-1.2817381620407104
0.76708984375,-0.1507568359375,0.6119384765625,-0.6103515625,0.4882812201976776,-1.5869139432907104
0.76513671875,-0.1463623046875,0.61083984375,-0.8544921278953552,0.54931640625,-1.4038084745407104
0.77197265625,-0.1434326171875,0.6168212890625,0.4272460639476776,-0.1220703050494194,-0.9765624403953552
0.7701416015625,-0.14208984375,0.6273193359375,-0.7324218153953552,-1.03759765625,-0.7934569716453552
0.763671875,-0.1494140625,0.6219482421875,-1.3427733182907104,-1.6479490995407104,-1.15966796875
0.76171875,-0.1585693359375,0.6170654296875,0.1831054538488388,-1.15966796875,-1.5258787870407104
0.757568359375,-0.14453125,0.613037109375,0.9765624403953552,-0.8544921278953552,-1.4648436307907104
0.7662353515625,-0.1485595703125,0.61767578125,-0.4882812201976776,-1.03759765625,-1.6479490995407104
0.7537841796875,-0.1712646484375,0.61865234375,-0.1220703050494194,-0.54931640625,-1.4648436307907104
0.7532958984375,-0.16748046875,0.62060546875,0.7324218153953552,-0.6713866591453552,-1.4038084745407104
0.7613525390625,-0.157958984375,0.619873046875,-0.3662109076976776,-0.4272460639476776,-1.7089842557907104
0.75390625,-0.1580810546875,0.6309814453125,0.2441406100988388,0.1831054538488388,-2.01416015625
0.7591552734375,-0.156982421875,0.625,-0.1831054538488388,0.6713866591453552,-2.624511480331421
1.3955078125,-0.302490234375,0.9267578125,5.737304210662842,-11.657713890075684,-22.216794967651367
1.4805908203125,-0.366943359375,1.0667724609375,26.000974655151367,-3.234863042831421,-23.132322311401367
1.5245361328125,-0.331298828125,1.1429443359375,27.282712936401367,-0.54931640625,-13.610838890075684
1.5010986328125,-0.3916015625,1.1287841796875,8.60595703125,-2.197265625,-11.047362327575684
1.51318359375,-0.409912109375,1.0780029296875,20.324705123901367,-2.990722417831421,0.0610351525247097
1.35595703125,-0.3577880859375,1.0150146484375,4.39453125,-8.544921875,13.793944358825684
1.0491943359375,-0.292236328125,0.78662109375,8.9111328125,-11.779784202575684,19.287109375
0.7344970703125,-0.212890625,0.68505859375,14.465331077575684,-10.620116233825684,-4.45556640625
0.7064208984375,-0.2950439453125,0.463134765625,24.169919967651367,-10.803221702575684,-12.512206077575684
0.6068115234375,-0.2525634765625,0.4556884765625,45.227046966552734,-9.82666015625,-11.352538108825684
0.4603271484375,-0.084228515625,0.49267578125,18.85986328125,-4.69970703125,-16.7236328125
0.4190673828125,-0.0989990234375,0.314453125,-2.685546636581421,-3.417968511581421,-21.606443405151367
0.35302734375,-0.14697265625,0.185791015625,12.939452171325684,-6.225585460662842,-17.9443359375
0.2752685546875,-0.07958984375,0.199951171875,21.850584030151367,-9.21630859375,-12.145995140075684
0.3170166015625,0.015625,0.239990234375,-3.662109136581421,-12.878417015075684,-8.6669921875
0.4112548828125,-0.073486328125,0.212158203125,-17.08984375,-12.451170921325684,-4.33349609375
0.3856201171875,-0.1031494140625,0.2923583984375,-6.530761241912842,-8.48388671875,-0.8544921278953552
0.4466552734375,-0.1199951171875,0.3175048828125,-1.8920897245407104,-2.25830078125,5.859374523162842
0.5284423828125,-0.08251953125,0.3426513671875,-22.583005905151367,-0.9765624403953552,11.230467796325684
0.5703125,-0.110595703125,0.373291015625,-38.57421875,-0.7324218153953552,15.258788108825684
0.668701171875,-0.1212158203125,0.4508056640625,-28.137205123901367,0.9155272841453552,14.404295921325684
0.69775390625,-0.10888671875,0.53173828125,-9.3994140625,5.676269054412842,10.253905296325684
0.7000732421875,-0.068603515625,0.5595703125,-3.906249761581421,6.713866710662842,6.164550304412842
0.779541015625,-0.0775146484375,0.590576171875,-8.1787109375,5.310058116912842,5.310058116912842
0.7779541015625,-0.074462890625,0.6380615234375,4.69970703125,6.896972179412842,5.920409679412842
0.7760009765625,-0.0875244140625,0.6317138671875,6.469726085662842,6.530761241912842,6.103515148162842
0.775146484375,-0.1103515625,0.6397705078125,1.5869139432907104,3.845214605331421,6.835937023162842
0.7742919921875,-0.116943359375,0.6597900390625,-0.1220703050494194,2.44140625,7.568358898162842
0.7430419921875,-0.1253662109375,0.6456298828125,-2.25830078125,2.3193359375,6.896972179412842
0.72607421875,-0.14794921875,0.6397705078125,-2.746581792831421,2.44140625,6.347655773162842
0.7252197265625,-0.1484375,0.6328125,-3.662109136581421,2.746581792831421,3.845214605331421
0.717041015625,-0.1610107421875,0.60205078125,-4.45556640625,1.4648436307907104,1.7700194120407104
0.744384765625,-0.1376953125,0.5977783203125,-0.54931640625,-0.9155272841453552,1.5258787870407104
0.7698974609375,-0.1544189453125,0.6282958984375,-3.479003667831421,-2.685546636581421,-0.9765624403953552
0.7677001953125,-0.15380859375,0.642333984375,-1.220703125,-1.2817381620407104,-4.2724609375
0.767578125,-0.1578369140625,0.6209716796875,-0.54931640625,-0.4272460639476776,-4.7607421875
0.777099609375,-0.1705322265625,0.6239013671875,0.3662109076976776,-0.4882812201976776,-3.723144292831421
0.774169921875,-0.1767578125,0.6434326171875,-1.7700194120407104,-1.03759765625,-2.38037109375
0.761962890625,-0.1673583984375,0.63330078125,-4.7607421875,-0.6713866591453552,-0.7934569716453552
0.76025390625,-0.1763916015625,0.6072998046875,-2.929687261581421,0.2441406100988388,2.44140625
0.749267578125,-0.1683349609375,0.611572265625,-5.371093273162842,1.8920897245407104,4.8828125
0.75244140625,-0.1605224609375,0.5899658203125,-6.347655773162842,3.479003667831421,6.286620616912842
0.7711181640625,-0.1583251953125,0.5733642578125,-4.82177734375,3.723144292831421,6.835937023162842
0.7734375,-0.1478271484375,0.5870361328125,-2.563476324081421,3.479003667831421,6.103515148162842
0.7879638671875,-0.140380859375,0.583251953125,-2.868652105331421,2.990722417831421,5.920409679412842
0.8084716796875,-0.13427734375,0.6005859375,-3.601073980331421,2.50244140625,6.469726085662842
0.8170166015625,-0.1279296875,0.6136474609375,-2.25830078125,2.563476324081421,6.713866710662842
0.8115234375,-0.1116943359375,0.6136474609375,-1.15966796875,2.624511480331421,6.774901866912842
0.8154296875,-0.093994140625,0.5948486328125,0.7934569716453552,2.01416015625,8.4228515625
0.804931640625,-0.09716796875,0.5938720703125,-1.8920897245407104,0.4272460639476776,9.94873046875
0.7857666015625,-0.1229248046875,0.603759765625,-2.868652105331421,-1.0986328125,9.94873046875
0.77490234375,-0.1376953125,0.607421875,-2.0751953125,-1.3427733182907104,8.36181640625
0.7572021484375,-0.1328125,0.6021728515625,-1.0986328125,-0.54931640625,5.798339366912842
0.7630615234375,-0.110107421875,0.5916748046875,-3.540038824081421,-0.7324218153953552,3.906249761581421
0.7623291015625,-0.089599609375,0.597900390625,-2.685546636581421,-1.3427733182907104,1.9531248807907104
0.76708984375,-0.0853271484375,0.600830078125,1.9531248807907104,-2.25830078125,0.54931640625
0.7615966796875,-0.088134765625,0.607666015625,0.54931640625,-3.479003667831421,-1.3427733182907104
0.76416015625,-0.09228515625,0.6024169921875,-0.6713866591453552,-3.662109136581421,-1.15966796875
0.7584228515625,-0.1136474609375,0.62255859375,0.4882812201976776,-2.685546636581421,-1.8310545682907104
0.761474609375,-0.1212158203125,0.6302490234375,1.7089842557907104,-3.051757574081421,-3.112792730331421
0.76123046875,-0.11376953125,0.6473388671875,4.0283203125,-2.624511480331421,-4.45556640625
0.769287109375,-0.09326171875,0.6337890625,3.601073980331421,-2.3193359375,-4.21142578125
0.7672119140625,-0.095703125,0.63232421875,1.5869139432907104,-2.50244140625,-2.807616949081421
0.766845703125,-0.11181640625,0.625,1.8920897245407104,-2.197265625,-2.25830078125
0.7681884765625,-0.1251220703125,0.6256103515625,2.3193359375,-1.220703125,-2.25830078125
0.7703857421875,-0.1173095703125,0.6251220703125,2.563476324081421,0.2441406100988388,-2.746581792831421
0.7767333984375,-0.107666015625,0.61669921875,2.0751953125,1.15966796875,-2.563476324081421
0.766357421875,-0.1103515625,0.622314453125,1.0986328125,1.5258787870407104,-2.0751953125
0.75830078125,-0.1190185546875,0.6146240234375,2.50244140625,0.7934569716453552,-1.9531248807907104
0.761474609375,-0.1270751953125,0.6260986328125,2.44140625,-0.7324218153953552,-2.25830078125
0.773193359375,-0.134521484375,0.625,1.220703125,-1.4648436307907104,-2.3193359375
0.763427734375,-0.123779296875,0.6131591796875,0.30517578125,-1.03759765625,-1.8310545682907104
0.7586669921875,-0.117919921875,0.5999755859375,0.30517578125,0.4272460639476776,-0.4272460639476776
0.771240234375,-0.11181640625,0.5958251953125,1.8310545682907104,1.7089842557907104,0.3662109076976776
0.7734375,-0.1099853515625,0.61083984375,4.21142578125,2.807616949081421,0.4272460639476776
0.77978515625,-0.097412109375,0.6322021484375,3.967284917831421,3.173827886581421,-0.6713866591453552
0.7926025390625,-0.09765625,0.6314697265625,2.3193359375,2.13623046875,-1.0986328125
0.79833984375,-0.1082763671875,0.6424560546875,2.563476324081421,1.5869139432907104,-0.9155272841453552
0.7943115234375,-0.133056640625,0.6351318359375,0.9155272841453552,2.563476324081421,-0.6103515625
0.7786865234375,-0.1453857421875,0.618896484375,-0.9765624403953552,3.051757574081421,1.0986328125
0.7684326171875,-0.1409912109375,0.6083984375,-1.5258787870407104,3.234863042831421,2.44140625
0.7750244140625,-0.1192626953125,0.595947265625,-2.685546636581421,2.50244140625,2.25830078125
0.77490234375,-0.112060546875,0.5972900390625,-0.54931640625,1.4648436307907104,1.7700194120407104
0.7764892578125,-0.11669921875,0.5999755859375,0.1831054538488388,0.8544921278953552,1.0986328125
0.782470703125,-0.119384765625,0.612548828125,0.1831054538488388,0.7324218153953552,0.7324218153953552
0.7882080078125,-0.1038818359375,0.615478515625,0.0,0.7324218153953552,0.7324218153953552
0.7857666015625,-0.101318359375,0.6146240234375,-1.15966796875,0.1831054538488388,0.7934569716453552
0.787841796875,-0.109375,0.61376953125,-0.4882812201976776,-0.3662109076976776,1.5258787870407104
0.7835693359375,-0.1181640625,0.621826171875,-1.4648436307907104,-0.7324218153953552,2.0751953125
0.7772216796875,-0.11474609375,0.6163330078125,-1.15966796875,-0.9155272841453552,2.50244140625
0.773681640625,-0.1099853515625,0.614990234375,-1.4648436307907104,-1.4648436307907104,2.38037109375
0.762451171875,-0.1068115234375,0.6129150390625,-1.4648436307907104,-1.4038084745407104,1.8920897245407104
0.7650146484375,-0.1053466796875,0.6048583984375,-1.4648436307907104,-0.9155272841453552,1.3427733182907104
0.7724609375,-0.1019287109375,0.6070556640625,-1.2817381620407104,-0.30517578125,0.3662109076976776
0.768310546875,-0.0989990234375,0.6124267578125,0.6713866591453552,-0.0610351525247097,-0.4882812201976776
0.7735595703125,-0.1103515625,0.6102294921875,-1.03759765625,-0.6713866591453552,-0.54931640625
0.77587890625,-0.1181640625,0.621337890625,-0.9155272841453552,-0.6713866591453552,-0.4272460639476776
0.775634765625,-0.1151123046875,0.622802734375,0.3662109076976776,-0.1831054538488388,-0.0610351525247097
0.7781982421875,-0.0994873046875,0.615234375,0.0,-0.1831054538488388,0.6713866591453552
0.7763671875,-0.0943603515625,0.6268310546875,-1.7089842557907104,-0.30517578125,1.2817381620407104
0.7796630859375,-0.0927734375,0.622802734375,-0.9155272841453552,0.0,1.4648436307907104
0.777587890625,-0.10107421875,0.6156005859375,-0.6713866591453552,0.2441406100988388,1.0986328125
0.775634765625,-0.0965576171875,0.6142578125,-0.7324218153953552,0.2441406100988388,0.8544921278953552
0.771484375,-0.09326171875,0.607666015625,-0.6713866591453552,-0.3662109076976776,1.0986328125
0.778076171875,-0.0859375,0.610107421875,-0.6713866591453552,-0.9765624403953552,0.4272460639476776
0.776123046875,-0.0972900390625,0.6278076171875,0.3662109076976776,-0.6713866591453552,-0.0610351525247097
0.7791748046875,-0.106689453125,0.6221923828125,-0.9155272841453552,-0.0610351525247097,0.0
0.7734375,-0.0997314453125,0.6162109375,-1.5258787870407104,0.1220703050494194,0.8544921278953552
0.775146484375,-0.0887451171875,0.6103515625,-0.9765624403953552,-0.6103515625,0.7324218153953552
0.7705078125,-0.09228515625,0.618896484375,0.1831054538488388,-0.9765624403953552,0.2441406100988388
0.7666015625,-0.1014404296875,0.6177978515625,0.4882812201976776,-1.0986328125,0.1831054538488388
0.766845703125,-0.1016845703125,0.6162109375,1.4038084745407104,-1.3427733182907104,0.0610351525247097
0.775634765625,-0.090576171875,0.6051025390625,3.845214605331421,-1.0986328125,0.8544921278953552
0.7965087890625,-0.0908203125,0.60791015625,3.112792730331421,-0.9155272841453552,1.8920897245407104
1.410888671875,-0.2396240234375,0.9635009765625,10.253905296325684,-1.15966796875,-14.465331077575684
1.409912109375,-0.3243408203125,1.03125,2.929687261581421,-2.25830078125,-13.977049827575684
1.4354248046875,-0.2840576171875,1.0355224609375,19.4091796875,-0.6713866591453552,-1.0986328125
1.423095703125,-0.267578125,1.0479736328125,3.967284917831421,-1.6479490995407104,4.94384765625
1.3905029296875,-0.281494140625,0.998046875,1.4038084745407104,-2.50244140625,10.437010765075684
1.337646484375,-0.2747802734375,0.9510498046875,7.934569835662842,-1.15966796875,16.4794921875
1.25244140625,-0.25390625,0.8922119140625,9.765625,0.0610351525247097,17.7001953125
1.2161865234375,-0.234619140625,0.86083984375,0.0,-0.7934569716453552,17.51708984375
1.16162109375,-0.2457275390625,0.8199462890625,-6.896972179412842,-4.0283203125,20.141599655151367
1.0987548828125,-0.24072265625,0.799072265625,2.3193359375,-8.9111328125,22.705076217651367
1.02880859375,-0.22412109375,0.763916015625,5.0048828125,-13.549803733825684,20.996091842651367
0.9310302734375,-0.209716796875,0.7171630859375,2.25830078125,-15.563963890075684,13.977049827575684
0.8529052734375,-0.146240234375,0.6934814453125,2.25830078125,-13.427733421325684,8.544921875
0.817626953125,-0.1522216796875,0.616943359375,9.033203125,-9.27734375,3.356933355331421
0.66455078125,-0.1917724609375,0.5068359375,30.517576217651367,-5.981444835662842,-6.835937023162842
0.5250244140625,-0.14794921875,0.42578125,26.550291061401367,-8.6669921875,-20.141599655151367
0.5323486328125,-0.1029052734375,0.392333984375,6.286620616912842,-10.681151390075684,-25.573728561401367
0.46923828125,-0.1092529296875,0.359619140625,14.831542015075684,-3.662109136581421,-22.277830123901367
0.36865234375,-0.1124267578125,0.246337890625,18.9208984375,1.15966796875,-19.8974609375
0.277099609375,-0.0797119140625,0.1810302734375,2.3193359375,-0.9155272841453552,-16.66259765625
0.37060546875,-0.064453125,0.1263427734375,9.21630859375,-5.371093273162842,-9.27734375
0.3494873046875,0.0120849609375,0.2745361328125,22.033689498901367,-4.21142578125,-4.39453125
0.3634033203125,-0.0098876953125,0.317626953125,-4.69970703125,-4.5166015625,-2.868652105331421
0.4573974609375,-0.0738525390625,0.26025390625,-13.671874046325684,-10.131834983825684,4.7607421875
0.4849853515625,-0.0968017578125,0.364013671875,-4.2724609375,-14.343260765075684,12.329100608825684
0.593505859375,-0.0958251953125,0.4208984375,-7.812499523162842,-16.357421875,14.831542015075684
0.671875,-0.0643310546875,0.4468994140625,-9.765625,-15.563963890075684,13.793944358825684
0.7109375,-0.0855712890625,0.5079345703125,-8.6669921875,-11.108397483825684,11.840819358825684
0.74169921875,-0.07470703125,0.57421875,-12.756346702575684,-7.629394054412842,7.141112804412842
0.783935546875,-0.0411376953125,0.6134033203125,-5.249022960662842,-2.197265625,6.225585460662842
0.7784423828125,-0.036376953125,0.6318359375,0.3662109076976776,1.5869139432907104,5.737304210662842
0.7503662109375,-0.0595703125,0.6199951171875,-6.103515148162842,3.356933355331421,4.0283203125
0.7593994140625,-0.0889892578125,0.6021728515625,-9.3994140625,3.723144292831421,2.868652105331421
0.7672119140625,-0.0955810546875,0.61279296875,-4.21142578125,4.5166015625,2.25830078125
0.77783203125,-0.0809326171875,0.648681640625,1.03759765625,4.94384765625,2.0751953125
0.7657470703125,-0.0859375,0.668701171875,-2.868652105331421,5.432128429412842,1.3427733182907104
0.7662353515625,-0.10498046875,0.6392822265625,-3.845214605331421,5.249022960662842,0.7934569716453552
0.755859375,-0.1221923828125,0.63134765625,0.4882812201976776,4.21142578125,0.1220703050494194
0.7545166015625,-0.11474609375,0.6190185546875,-2.3193359375,1.4038084745407104,-0.0610351525247097
0.7647705078125,-0.0994873046875,0.6138916015625,-6.042479991912842,-1.4038084745407104,0.0610351525247097
0.758056640625,-0.1082763671875,0.627685546875,-6.591796398162842,-2.197265625,-0.1831054538488388
0.76611328125,-0.09326171875,0.6260986328125,-5.0048828125,-1.03759765625,-1.0986328125
0.7764892578125,-0.107666015625,0.6243896484375,-3.173827886581421,0.2441406100988388,-1.8920897245407104
0.77392578125,-0.118896484375,0.6195068359375,-1.4038084745407104,1.6479490995407104,-1.7089842557907104
0.75634765625,-0.1199951171875,0.6290283203125,-3.784179449081421,2.01416015625,-1.4648436307907104
0.7657470703125,-0.120849609375,0.6197509765625,-3.906249761581421,1.220703125,-0.54931640625
0.7735595703125,-0.10888671875,0.6300048828125,-2.13623046875,0.9765624403953552,-0.4882812201976776
0.7679443359375,-0.1112060546875,0.6256103515625,-2.3193359375,1.0986328125,-0.8544921278953552
0.7613525390625,-0.1170654296875,0.623046875,-4.7607421875,1.5258787870407104,0.1220703050494194
0.7733154296875,-0.1129150390625,0.6185302734375,-3.845214605331421,2.624511480331421,0.9765624403953552
0.7652587890625,-0.107421875,0.6162109375,-3.845214605331421,3.295898199081421,0.4272460639476776
0.7626953125,-0.1015625,0.5987548828125,-2.807616949081421,2.929687261581421,0.0610351525247097
0.766845703125,-0.096435546875,0.6099853515625,-0.6713866591453552,2.44140625,-0.4272460639476776
0.7740478515625,-0.0997314453125,0.609619140625,-0.1831054538488388,2.685546636581421,-0.54931640625
0.7821044921875,-0.0980224609375,0.6063232421875,-1.7700194120407104,2.990722417831421,-0.4272460639476776
0.7880859375,-0.0889892578125,0.6129150390625,-0.7324218153953552,2.746581792831421,-0.4272460639476776
0.79736328125,-0.095703125,0.6016845703125,0.1831054538488388,1.6479490995407104,-0.9155272841453552
0.7962646484375,-0.1011962890625,0.591552734375,2.13623046875,0.9155272841453552,-0.54931640625
0.7900390625,-0.1046142578125,0.598876953125,1.4648436307907104,0.7324218153953552,0.7324218153953552
0.791748046875,-0.1044921875,0.6024169921875,1.15966796875,1.03759765625,1.220703125
0.7947998046875,-0.10107421875,0.612060546875,2.0751953125,1.5869139432907104,2.0751953125
0.78955078125,-0.0987548828125,0.6092529296875,1.6479490995407104,2.0751953125,2.868652105331421
0.7864990234375,-0.0977783203125,0.5968017578125,0.6713866591453552,2.197265625,3.540038824081421
0.7823486328125,-0.0943603515625,0.5968017578125,1.2817381620407104,2.01416015625,3.845214605331421
0.7900390625,-0.0943603515625,0.5963134765625,3.906249761581421,1.5258787870407104,3.295898199081421
0.7880859375,-0.0926513671875,0.6021728515625,3.601073980331421,0.30517578125,2.44140625
0.7830810546875,-0.0921630859375,0.6080322265625,3.967284917831421,-0.6103515625,2.807616949081421
0.787353515625,-0.0911865234375,0.61279296875,2.50244140625,-0.9155272841453552,2.3193359375
0.7911376953125,-0.0841064453125,0.6119384765625,2.3193359375,-0.3662109076976776,1.3427733182907104
0.7823486328125,-0.1011962890625,0.6082763671875,1.9531248807907104,-0.6103515625,1.220703125
0.7767333984375,-0.10546875,0.6099853515625,1.5258787870407104,-1.15966796875,1.5869139432907104
0.784423828125,-0.1011962890625,0.608642578125,0.1220703050494194,-1.4038084745407104,2.624511480331421
0.7879638671875,-0.087890625,0.620849609375,-2.746581792831421,-1.7089842557907104,2.807616949081421
0.7816162109375,-0.081298828125,0.6201171875,-1.2817381620407104,-1.0986328125,2.38037109375
0.777099609375,-0.0782470703125,0.600341796875,-0.1831054538488388,0.0,1.8920897245407104
0.7762451171875,-0.080810546875,0.5975341796875,-1.2817381620407104,0.1831054538488388,1.3427733182907104
0.780517578125,-0.0836181640625,0.6065673828125,1.8310545682907104,-0.7324218153953552,-0.1220703050494194
0.776611328125,-0.09326171875,0.614990234375,2.25830078125,-0.9155272841453552,-0.1220703050494194
0.7750244140625,-0.090576171875,0.619873046875,0.54931640625,-0.1831054538488388,-0.7324218153953552
0.7730712890625,-0.0975341796875,0.6087646484375,1.4038084745407104,0.7324218153953552,-1.03759765625
0.774658203125,-0.0999755859375,0.606689453125,1.5869139432907104,0.54931640625,-1.3427733182907104
0.7763671875,-0.097412109375,0.60693359375,0.9765624403953552,0.1831054538488388,-1.4038084745407104
0.7779541015625,-0.1046142578125,0.605224609375,1.2817381620407104,0.0610351525247097,-0.9155272841453552
0.783203125,-0.09228515625,0.6075439453125,1.5869139432907104,0.30517578125,-0.6103515625
0.7794189453125,-0.089599609375,0.615234375,1.0986328125,0.3662109076976776,-0.54931640625
0.7860107421875,-0.0908203125,0.6092529296875,1.220703125,0.9155272841453552,-0.9765624403953552
0.7841796875,-0.098876953125,0.6136474609375,0.9765624403953552,1.5258787870407104,-1.03759765625
0.7891845703125,-0.094970703125,0.60791015625,1.8920897245407104,1.5869139432907104,-0.7324218153953552
0.7857666015625,-0.0946044921875,0.6072998046875,0.3662109076976776,1.0986328125,-0.4272460639476776
0.784423828125,-0.09228515625,0.612060546875,0.9765624403953552,0.4272460639476776,0.2441406100988388
0.78173828125,-0.0965576171875,0.6080322265625,0.9155272841453552,-0.2441406100988388,0.4272460639476776
0.78515625,-0.0908203125,0.6124267578125,0.54931640625,-0.30517578125,0.4882812201976776
0.77587890625,-0.092529296875,0.614990234375,0.30517578125,-0.2441406100988388,0.4272460639476776
0.7840576171875,-0.0849609375,0.6044921875,0.6103515625,0.0,0.7324218153953552
0.7825927734375,-0.0894775390625,0.6085205078125,0.4272460639476776,-0.0610351525247097,0.6103515625
0.783935546875,-0.0843505859375,0.6033935546875,0.9155272841453552,-0.3662109076976776,-0.1220703050494194
0.7869873046875,-0.088623046875,0.5985107421875,1.0986328125,-1.4648436307907104,-0.54931640625
0.7861328125,-0.09716796875,0.6121826171875,1.5258787870407104,-1.8310545682907104,-0.3662109076976776
0.7879638671875,-0.1026611328125,0.6168212890625,0.1831054538488388,-1.15966796875,-0.1220703050494194
0.7825927734375,-0.1036376953125,0.6181640625,0.1220703050494194,-0.3662109076976776,0.3662109076976776
0.7803955078125,-0.099609375,0.612060546875,0.1220703050494194,0.30517578125,0.7324218153953552
0.77978515625,-0.091552734375,0.6053466796875,-0.3662109076976776,0.4272460639476776,0.7934569716453552
0.77685546875,-0.0987548828125,0.611083984375,-0.6713866591453552,0.1220703050494194,0.7324218153953552
0.7816162109375,-0.0970458984375,0.6151123046875,-1.0986328125,0.7934569716453552,0.4882812201976776
0.780517578125,-0.0877685546875,0.6026611328125,-1.4038084745407104,0.9155272841453552,0.6713866591453552
0.77490234375,-0.0867919921875,0.6046142578125,-0.6103515625,0.54931640625,0.1831054538488388
0.7783203125,-0.0792236328125,0.607177734375,0.1220703050494194,0.3662109076976776,-0.54931640625
0.7784423828125,-0.0865478515625,0.6109619140625,-1.220703125,-0.0610351525247097,-1.15966796875
0.780029296875,-0.0897216796875,0.60986328125,-0.8544921278953552,0.0610351525247097,-1.7700194120407104
0.7841796875,-0.0887451171875,0.6048583984375,-0.1831054538488388,-0.54931640625,-2.13623046875
0.78515625,-0.0848388671875,0.60205078125,0.8544921278953552,-1.03759765625,-2.38037109375
0.7880859375,-0.08642578125,0.607666015625,0.4882812201976776,-1.7700194120407104,-2.38037109375
0.787841796875,-0.0916748046875,0.621826171875,-0.54931640625,-2.197265625,-2.25830078125
0.7822265625,-0.0919189453125,0.6162109375,-0.1831054538488388,-1.8310545682907104,-1.220703125
0.785400390625,-0.076904296875,0.604736328125,-1.03759765625,-1.7089842557907104,-0.30517578125
0.791748046875,-0.0787353515625,0.611083984375,-0.6713866591453552,-1.5258787870407104,-0.9765624403953552
0.7845458984375,-0.0865478515625,0.6187744140625,1.3427733182907104,-1.220703125,-1.5869139432907104
1.3824462890625,-0.2796630859375,0.9637451171875,31.311033248901367,-7.202147960662842,-16.41845703125
1.4371337890625,-0.3160400390625,1.11279296875,21.484373092651367,-8.544921875,-15.991209983825684
1.4622802734375,-0.294677734375,1.171142578125,6.774901866912842,-5.798339366912842,-8.30078125
1.5162353515625,-0.2730712890625,1.16943359375,6.347655773162842,-4.150390625,0.1220703050494194
1.46533203125,-0.285888671875,1.1290283203125,13.427733421325684,-1.4038084745407104,7.385253429412842
1.36376953125,-0.296630859375,1.0758056640625,9.6435546875,-1.7700194120407104,12.878417015075684
1.30810546875,-0.2989501953125,1.056884765625,-3.784179449081421,-2.197265625,19.34814453125
1.2576904296875,-0.282958984375,0.98486328125,-1.15966796875,0.9765624403953552,23.803709030151367
1.194580078125,-0.260986328125,0.926025390625,5.798339366912842,0.0610351525247097,25.085447311401367
1.140380859375,-0.2445068359375,0.8768310546875,1.220703125,-4.39453125,26.245115280151367
1.09228515625,-0.213134765625,0.8538818359375,-2.13623046875,-7.568358898162842,26.000974655151367
1.0206298828125,-0.229248046875,0.760986328125,7.873534679412842,-10.375975608825684,24.780271530151367
0.9052734375,-0.19580078125,0.7447509765625,5.676269054412842,-14.831542015075684,22.338865280151367
0.808349609375,-0.1925048828125,0.70263671875,3.295898199081421,-15.197752952575684,13.366698265075684
0.7188720703125,-0.1851806640625,0.576416015625,25.207517623901367,-10.314940452575684,0.54931640625
0.6082763671875,-0.164306640625,0.4644775390625,39.12353515625,-9.27734375,-8.30078125
0.518310546875,-0.100341796875,0.496826171875,34.36279296875,-11.779784202575684,-19.71435546875
0.43798828125,-0.1143798828125,0.436279296875,18.6767578125,-10.375975608825684,-30.761716842651367
0.3939208984375,-0.1146240234375,0.2955322265625,34.36279296875,-3.906249761581421,-37.109375
0.3043212890625,-0.0980224609375,0.1890869140625,44.982906341552734,-2.3193359375,-40.832515716552734
0.26513671875,0.0079345703125,0.240478515625,15.624999046325684,-9.3994140625,-38.02490234375
0.319580078125,-0.0465087890625,0.2357177734375,-3.967284917831421,-13.854979515075684,-29.479978561401367
0.354248046875,-0.09033203125,0.1903076171875,19.34814453125,-11.169432640075684,-17.9443359375
0.303466796875,-0.075927734375,0.2659912109375,16.41845703125,-10.864256858825684,-8.85009765625
0.5406494140625,-0.0501708984375,0.4041748046875,-11.108397483825684,-24.536130905151367,18.5546875
0.5849609375,-0.05078125,0.568359375,-22.399900436401367,-18.06640625,20.568845748901367
0.70263671875,-0.07421875,0.5587158203125,-29.296873092651367,-10.925292015075684,21.789548873901367
0.7452392578125,-0.09033203125,0.615478515625,-16.11328125,-5.065917491912842,21.850584030151367
0.7454833984375,-0.087890625,0.72705078125,2.685546636581421,6.713866710662842,15.441893577575684
0.706787109375,-0.0941162109375,0.7088623046875,-1.4648436307907104,13.854979515075684,8.85009765625
0.7110595703125,-0.107421875,0.624267578125,-9.27734375,11.474608421325684,10.131834983825684
0.729736328125,-0.1123046875,0.609375,-7.324218273162842,8.056640625,11.352538108825684
0.7298583984375,-0.125732421875,0.6287841796875,-5.676269054412842,8.4228515625,8.11767578125
0.756103515625,-0.1488037109375,0.630859375,-7.324218273162842,6.469726085662842,5.981444835662842
0.761474609375,-0.1143798828125,0.6383056640625,-2.929687261581421,4.82177734375,5.126952648162842
0.75390625,-0.0821533203125,0.6517333984375,-1.4038084745407104,2.990722417831421,2.929687261581421
0.746826171875,-0.0933837890625,0.66015625,-5.676269054412842,1.0986328125,1.5258787870407104
0.7554931640625,-0.119384765625,0.633544921875,-4.2724609375,1.03759765625,1.6479490995407104
0.736572265625,-0.127685546875,0.6302490234375,0.1831054538488388,1.2817381620407104,3.112792730331421
0.72021484375,-0.1436767578125,0.6212158203125,-1.220703125,0.4882812201976776,2.807616949081421
0.7242431640625,-0.1536865234375,0.6060791015625,-2.746581792831421,0.54931640625,1.9531248807907104
0.727294921875,-0.1690673828125,0.6046142578125,-6.835937023162842,-0.4882812201976776,3.356933355331421
0.77490234375,-0.1458740234375,0.61474609375,-7.873534679412842,-1.6479490995407104,7.019042491912842
0.78173828125,-0.1561279296875,0.6727294921875,-7.995604991912842,-3.295898199081421,7.141112804412842
0.7852783203125,-0.132080078125,0.7052001953125,0.0,-3.051757574081421,6.103515148162842
0.763427734375,-0.1007080078125,0.69287109375,0.4882812201976776,-1.6479490995407104,6.347655773162842
0.7498779296875,-0.097900390625,0.637451171875,-5.920409679412842,-1.7700194120407104,8.30078125
0.746337890625,-0.1234130859375,0.6234130859375,-5.065917491912842,-2.38037109375,9.58251953125
0.7254638671875,-0.12060546875,0.6707763671875,-1.5258787870407104,0.4272460639476776,8.7890625
0.726318359375,-0.1129150390625,0.64892578125,-7.385253429412842,3.295898199081421,5.981444835662842
0.739501953125,-0.0953369140625,0.606689453125,-6.347655773162842,4.2724609375,4.2724609375
0.741943359375,-0.084716796875,0.6182861328125,-1.8310545682907104,4.39453125,2.38037109375
0.7515869140625,-0.0830078125,0.6280517578125,-1.5869139432907104,2.929687261581421,0.0
0.7581787109375,-0.0906982421875,0.648681640625,-0.54931640625,1.2817381620407104,-0.9765624403953552
0.7607421875,-0.0887451171875,0.6505126953125,-0.30517578125,0.3662109076976776,-0.9765624403953552
0.7626953125,-0.0838623046875,0.6351318359375,2.3193359375,-0.7324218153953552,-0.30517578125
0.76220703125,-0.0753173828125,0.65380859375,2.38037109375,-1.4038084745407104,0.9155272841453552
0.7545166015625,-0.083251953125,0.6695556640625,-3.173827886581421,-0.9765624403953552,1.7089842557907104
0.7545166015625,-0.10107421875,0.6517333984375,-5.249022960662842,0.4882812201976776,2.990722417831421
0.7520751953125,-0.0849609375,0.6363525390625,-4.69970703125,1.3427733182907104,3.967284917831421
0.7476806640625,-0.0694580078125,0.62890625,-2.685546636581421,0.9155272841453552,3.234863042831421
0.7364501953125,-0.069580078125,0.6395263671875,-2.197265625,0.7934569716453552,2.01416015625
0.7435302734375,-0.077880859375,0.6483154296875,-3.112792730331421,1.5869139432907104,1.0986328125
0.7513427734375,-0.068359375,0.6512451171875,-2.3193359375,2.807616949081421,0.54931640625
0.75634765625,-0.0601806640625,0.649169921875,-3.112792730331421,2.807616949081421,-0.4882812201976776
0.755615234375,-0.05810546875,0.6412353515625,-2.929687261581421,1.9531248807907104,-0.8544921278953552
0.7606201171875,-0.067626953125,0.6376953125,-2.807616949081421,1.0986328125,-0.7324218153953552
0.7635498046875,-0.070068359375,0.6422119140625,-2.3193359375,1.220703125,-0.9155272841453552
0.756591796875,-0.06494140625,0.6402587890625,-0.4272460639476776,2.746581792831421,-1.0986328125
0.7606201171875,-0.055419921875,0.636962890625,0.2441406100988388,3.417968511581421,-0.3662109076976776
0.7645263671875,-0.0501708984375,0.6341552734375,-1.5869139432907104,2.685546636581421,-0.6103515625
0.762451171875,-0.0623779296875,0.6259765625,0.30517578125,1.2817381620407104,-1.3427733182907104
0.7626953125,-0.0655517578125,0.63037109375,2.13623046875,-0.1220703050494194,-2.44140625
0.76171875,-0.0791015625,0.6328125,1.8920897245407104,-0.54931640625,-3.234863042831421
0.770263671875,-0.0771484375,0.6357421875,2.44140625,-0.3662109076976776,-2.746581792831421
0.7584228515625,-0.078369140625,0.641845703125,0.0,0.0610351525247097,-2.0751953125
0.75439453125,-0.0791015625,0.6279296875,0.7324218153953552,0.54931640625,-0.9155272841453552
0.76220703125,-0.0718994140625,0.62353515625,0.6103515625,0.4882812201976776,-0.1220703050494194
0.7681884765625,-0.0631103515625,0.634765625,1.4648436307907104,0.1220703050494194,-0.1220703050494194
0.7711181640625,-0.0614013671875,0.6343994140625,2.685546636581421,0.30517578125,-0.7934569716453552
0.7669677734375,-0.064453125,0.633544921875,2.746581792831421,0.1220703050494194,-1.0986328125
0.770751953125,-0.07177734375,0.6275634765625,2.868652105331421,-0.2441406100988388,-0.6713866591453552
0.7685546875,-0.0782470703125,0.634765625,2.13623046875,-0.7324218153953552,-0.3662109076976776
0.768310546875,-0.0772705078125,0.6376953125,3.051757574081421,-0.8544921278953552,-0.7934569716453552
0.757568359375,-0.0831298828125,0.6431884765625,1.6479490995407104,-0.9765624403953552,-0.9155272841453552
0.759765625,-0.0853271484375,0.6378173828125,1.3427733182907104,-0.8544921278953552,-0.6713866591453552
0.757080078125,-0.0836181640625,0.6376953125,0.2441406100988388,-1.0986328125,-0.7324218153953552
0.7567138671875,-0.0860595703125,0.642822265625,-0.4882812201976776,-1.2817381620407104,-0.9155272841453552
0.7572021484375,-0.08251953125,0.6326904296875,0.7324218153953552,-0.8544921278953552,-0.30517578125
0.7587890625,-0.0712890625,0.635986328125,-1.15966796875,-0.54931640625,0.1831054538488388
0.767578125,-0.0650634765625,0.635009765625,-0.2441406100988388,-0.3662109076976776,-0.3662109076976776
0.76904296875,-0.0675048828125,0.6324462890625,0.9765624403953552,-1.15966796875,-1.5258787870407104
0.7659912109375,-0.0750732421875,0.6468505859375,0.4272460639476776,-2.01416015625,-1.5258787870407104
0.76025390625,-0.09033203125,0.6585693359375,-1.7700194120407104,-1.6479490995407104,-0.6713866591453552
0.7554931640625,-0.088134765625,0.646240234375,-1.9531248807907104,-1.15966796875,0.2441406100988388
0.7496337890625,-0.0814208984375,0.6412353515625,-1.8310545682907104,-1.0986328125,0.4882812201976776
0.748046875,-0.0743408203125,0.63818359375,-1.3427733182907104,-0.9765624403953552,0.4272460639476776
0.7540283203125,-0.075439453125,0.650146484375,-2.01416015625,-0.4882812201976776,0.8544921278953552
0.7578125,-0.073974609375,0.6512451171875,-2.0751953125,0.6713866591453552,0.8544921278953552
0.760009765625,-0.0745849609375,0.6397705078125,-1.2817381620407104,1.2817381620407104,0.9765624403953552
0.75537109375,-0.0672607421875,0.6441650390625,-1.5258787870407104,0.9765624403953552,0.9765624403953552
0.7587890625,-0.0653076171875,0.63916015625,-2.746581792831421,0.4272460639476776,0.7934569716453552
0.7569580078125,-0.0609130859375,0.6405029296875,-2.01416015625,0.30517578125,0.1831054538488388
0.7567138671875,-0.0677490234375,0.6385498046875,-1.3427733182907104,-0.1220703050494194,-0.2441406100988388
0.755615234375,-0.066162109375,0.643798828125,-1.5258787870407104,-0.6103515625,-0.2441406100988388
0.753662109375,-0.0679931640625,0.64208984375,-0.7324218153953552,-0.7934569716453552,-0.3662109076976776
0.754150390625,-0.065185546875,0.64404296875,-0.2441406100988388,-1.5258787870407104,-0.2441406100988388
0.760986328125,-0.0634765625,0.654052734375,-1.6479490995407104,-1.5869139432907104,-0.0610351525247097
0.7506103515625,-0.0662841796875,0.65380859375,-1.9531248807907104,-1.0986328125,0.0610351525247097
0.75732421875,-0.0599365234375,0.6376953125,-1.5258787870407104,-1.220703125,0.4882812201976776
0.7591552734375,-0.0565185546875,0.648193359375,-0.6103515625,-1.15966796875,-0.30517578125
0.7535400390625,-0.063232421875,0.6455078125,1.3427733182907104,-1.03759765625,-0.4882812201976776
0.751220703125,-0.0723876953125,0.6407470703125,-0.1220703050494194,-1.8920897245407104,-0.4882812201976776
0.746826171875,-0.072021484375,0.64697265625,-0.9765624403953552,-2.3193359375,0.1220703050494194
0.7476806640625,-0.070068359375,0.644287109375,0.1220703050494194,-2.13623046875,-0.1831054538488388
0.7498779296875,-0.06396484375,0.64892578125,1.2817381620407104,-1.8310545682907104,-0.6103515625
0.7476806640625,-0.0640869140625,0.65771484375,1.03759765625,-1.15966796875,-0.30517578125
1.209228515625,-0.389404296875,0.9381103515625,8.60595703125,-7.263183116912842,-16.66259765625
1.2802734375,-0.37744140625,1.002197265625,0.9155272841453552,-7.629394054412842,-14.953612327575684
1.3612060546875,-0.3792724609375,1.054443359375,1.0986328125,-4.5166015625,-18.1884765625
1.3924560546875,-0.35693359375,1.0855712890625,21.911619186401367,-4.57763671875,-17.15087890625
1.4432373046875,-0.3582763671875,1.1575927734375,19.775390625,-11.352538108825684,-11.474608421325684
1.4227294921875,-0.388916015625,1.26416015625,5.920409679412842,-11.352538108825684,-3.784179449081421
1.37841796875,-0.420166015625,1.1759033203125,2.44140625,-6.774901866912842,8.4228515625
1.307373046875,-0.3873291015625,1.1138916015625,4.7607421875,-4.638671875,20.446775436401367
1.19189453125,-0.390869140625,1.0474853515625,-3.784179449081421,-1.3427733182907104,24.414060592651367
1.1087646484375,-0.3909912109375,0.95263671875,-5.371093273162842,0.6103515625,26.428220748901367
1.0560302734375,-0.3421630859375,0.8936767578125,-2.685546636581421,0.1220703050494194,27.770994186401367
1.034423828125,-0.302978515625,0.866943359375,1.8310545682907104,-2.01416015625,27.648923873901367
0.9666748046875,-0.2626953125,0.849853515625,-2.25830078125,-4.33349609375,21.423337936401367
0.9085693359375,-0.2928466796875,0.7802734375,1.4038084745407104,-6.103515148162842,15.014647483825684
0.83935546875,-0.2835693359375,0.701416015625,23.254392623901367,-8.11767578125,13.793944358825684
0.7242431640625,-0.2000732421875,0.7021484375,20.324705123901367,-11.779784202575684,6.530761241912842
0.654541015625,-0.2027587890625,0.58984375,12.390135765075684,-13.671874046325684,-9.33837890625
0.5699462890625,-0.2314453125,0.4605712890625,39.4287109375,-10.925292015075684,-19.04296875
0.4569091796875,-0.1781005859375,0.41943359375,46.325679779052734,-9.6435546875,-23.193357467651367
0.369140625,-0.15771484375,0.324951171875,34.72900390625,-10.803221702575684,-27.832029342651367
0.3697509765625,-0.13623046875,0.26123046875,37.841796875,-11.047362327575684,-29.907224655151367
0.3319091796875,-0.073486328125,0.28076171875,42.968746185302734,-6.408690929412842,-26.733396530151367
0.316650390625,-0.044677734375,0.273193359375,15.624999046325684,-3.356933355331421,-24.108884811401367
0.3729248046875,-0.0738525390625,0.2244873046875,-10.070799827575684,-4.21142578125,-16.66259765625
0.4449462890625,-0.051513671875,0.27880859375,-5.249022960662842,-1.7700194120407104,-3.784179449081421
0.4151611328125,-0.0595703125,0.380126953125,-26.000974655151367,0.4272460639476776,7.080077648162842
0.5069580078125,-0.0645751953125,0.3426513671875,-47.119136810302734,-2.01416015625,20.629880905151367
0.567626953125,-0.0740966796875,0.3682861328125,-41.137691497802734,-6.713866710662842,31.799314498901367
0.6021728515625,-0.0723876953125,0.4942626953125,-35.64453125,-10.314940452575684,30.883787155151367
0.6690673828125,-0.0078125,0.565673828125,-20.141599655151367,-7.141112804412842,21.911619186401367
0.7413330078125,-0.0809326171875,0.5562744140625,-6.469726085662842,-6.408690929412842,12.023924827575684
0.725341796875,-0.1226806640625,0.6300048828125,7.629394054412842,-3.845214605331421,7.934569835662842
0.692138671875,-0.107421875,0.654052734375,10.803221702575684,0.0,8.23974609375
0.7015380859375,-0.0826416015625,0.65087890625,2.01416015625,1.5258787870407104,9.1552734375
0.7191162109375,-0.1343994140625,0.6396484375,-4.8828125,4.21142578125,8.9111328125
0.7225341796875,-0.157470703125,0.64599609375,-0.1831054538488388,5.859374523162842,6.286620616912842
0.74462890625,-0.119140625,0.6622314453125,5.554198741912842,6.164550304412842,4.7607421875
0.7471923828125,-0.0947265625,0.6810302734375,-0.4272460639476776,4.5166015625,2.197265625
0.750732421875,-0.1092529296875,0.651123046875,-3.784179449081421,3.173827886581421,1.9531248807907104
0.7447509765625,-0.152099609375,0.6337890625,0.1220703050494194,1.15966796875,2.990722417831421
0.7489013671875,-0.1732177734375,0.632568359375,5.371093273162842,-1.220703125,4.21142578125
0.7303466796875,-0.183349609375,0.6453857421875,3.417968511581421,-3.479003667831421,3.601073980331421
0.744873046875,-0.18603515625,0.634033203125,3.723144292831421,-4.45556640625,3.601073980331421
0.7479248046875,-0.1812744140625,0.6724853515625,7.202147960662842,-5.493163585662842,4.08935546875
0.7269287109375,-0.1790771484375,0.673583984375,2.746581792831421,-5.432128429412842,2.50244140625
0.73193359375,-0.1697998046875,0.6456298828125,0.54931640625,-5.310058116912842,0.6713866591453552
0.7249755859375,-0.16943359375,0.6380615234375,2.746581792831421,-6.469726085662842,0.6103515625
0.6947021484375,-0.1522216796875,0.643798828125,2.01416015625,-6.774901866912842,0.3662109076976776
0.682861328125,-0.1414794921875,0.618896484375,-0.6103515625,-6.347655773162842,1.2817381620407104
0.687744140625,-0.1265869140625,0.60400390625,-1.8920897245407104,-5.187987804412842,3.234863042831421
0.7227783203125,-0.1534423828125,0.640625,-0.6103515625,-3.051757574081421,2.01416015625
0.7340087890625,-0.2088623046875,0.71240234375,2.990722417831421,1.5258787870407104,-5.371093273162842
0.7017822265625,-0.201416015625,0.7271728515625,7.690429210662842,5.126952648162842,-9.765625
0.719482421875,-0.1558837890625,0.6651611328125,4.69970703125,3.906249761581421,-7.995604991912842
0.7318115234375,-0.1453857421875,0.6495361328125,1.4038084745407104,0.1220703050494194,-4.57763671875
0.7286376953125,-0.173583984375,0.6915283203125,1.9531248807907104,-1.0986328125,-2.01416015625
0.7313232421875,-0.2025146484375,0.691162109375,-0.7934569716453552,-0.1831054538488388,-0.0610351525247097
0.7283935546875,-0.1973876953125,0.674072265625,-5.0048828125,0.4272460639476776,2.197265625
0.7344970703125,-0.1654052734375,0.6588134765625,-2.13623046875,1.4038084745407104,4.8828125
0.7261962890625,-0.135986328125,0.6669921875,-0.0610351525247097,1.7089842557907104,5.737304210662842
0.71826171875,-0.1298828125,0.6729736328125,-2.624511480331421,1.15966796875,5.249022960662842
0.7127685546875,-0.1441650390625,0.667236328125,-3.356933355331421,0.7934569716453552,4.638671875
0.7154541015625,-0.1502685546875,0.6578369140625,-1.4648436307907104,1.5869139432907104,4.0283203125
0.7216796875,-0.142822265625,0.66162109375,0.0610351525247097,2.868652105331421,2.01416015625
0.7198486328125,-0.1334228515625,0.6658935546875,0.7324218153953552,2.807616949081421,0.30517578125
0.7222900390625,-0.13330078125,0.661376953125,0.0,1.9531248807907104,-0.30517578125
0.7230224609375,-0.1368408203125,0.6724853515625,-1.4038084745407104,1.3427733182907104,0.3662109076976776
0.7318115234375,-0.1468505859375,0.6639404296875,-1.3427733182907104,2.197265625,1.220703125
0.736083984375,-0.145263671875,0.65771484375,-1.03759765625,3.356933355331421,1.2817381620407104
0.732666015625,-0.1341552734375,0.6634521484375,-1.5869139432907104,3.662109136581421,1.15966796875
0.7327880859375,-0.1302490234375,0.6663818359375,-2.197265625,3.112792730331421,1.5869139432907104
0.7381591796875,-0.13134765625,0.6571044921875,-2.746581792831421,2.563476324081421,1.8310545682907104
0.737548828125,-0.1376953125,0.654541015625,-1.9531248807907104,2.50244140625,1.9531248807907104
0.7408447265625,-0.134521484375,0.6522216796875,-0.6713866591453552,2.50244140625,1.4038084745407104
0.7398681640625,-0.12841796875,0.652099609375,-1.220703125,2.25830078125,0.8544921278953552
0.7427978515625,-0.125732421875,0.6473388671875,-2.44140625,2.25830078125,0.2441406100988388
0.7376708984375,-0.1309814453125,0.648681640625,-2.44140625,2.50244140625,-0.3662109076976776
0.7373046875,-0.1431884765625,0.648681640625,-2.25830078125,2.746581792831421,-0.9155272841453552
0.7451171875,-0.13818359375,0.6429443359375,-0.7324218153953552,2.38037109375,-1.0986328125
0.7427978515625,-0.1317138671875,0.65380859375,-1.15966796875,1.03759765625,-0.7934569716453552
0.7462158203125,-0.124267578125,0.656005859375,-4.0283203125,0.1831054538488388,-0.7934569716453552
0.7415771484375,-0.13037109375,0.65771484375,-3.417968511581421,0.2441406100988388,-0.8544921278953552
0.7386474609375,-0.1260986328125,0.64697265625,-3.112792730331421,1.15966796875,-0.9155272841453552
0.743896484375,-0.118896484375,0.6363525390625,-3.295898199081421,1.6479490995407104,-1.220703125
0.7412109375,-0.138916015625,0.640380859375,-2.563476324081421,0.7324218153953552,-2.990722417831421
0.7447509765625,-0.133544921875,0.640380859375,-1.5258787870407104,0.2441406100988388,-2.563476324081421
0.7451171875,-0.124755859375,0.64892578125,-1.220703125,0.1831054538488388,-2.25830078125
0.7440185546875,-0.118896484375,0.6541748046875,-1.7700194120407104,0.7324218153953552,-2.25830078125
0.750244140625,-0.1278076171875,0.6527099609375,-2.01416015625,1.2817381620407104,-2.13623046875
0.75,-0.1322021484375,0.644775390625,-2.13623046875,1.5869139432907104,-1.8920897245407104
0.7425537109375,-0.1336669921875,0.6343994140625,-1.4038084745407104,1.0986328125,-1.03759765625
0.7479248046875,-0.1273193359375,0.6376953125,-0.8544921278953552,0.7934569716453552,-0.7934569716453552
0.7523193359375,-0.123046875,0.6441650390625,-0.0610351525247097,0.7934569716453552,-0.7934569716453552
0.75146484375,-0.1243896484375,0.654052734375,-0.2441406100988388,0.9765624403953552,-1.220703125
0.748291015625,-0.12841796875,0.6444091796875,-1.15966796875,1.4038084745407104,-1.3427733182907104
0.745849609375,-0.13623046875,0.6405029296875,-0.2441406100988388,1.0986328125,-0.6713866591453552
0.7412109375,-0.1383056640625,0.638916015625,-0.4272460639476776,0.4272460639476776,-0.6103515625
0.74658203125,-0.1322021484375,0.637451171875,0.4272460639476776,-0.30517578125,-0.4272460639476776
0.746337890625,-0.12548828125,0.6494140625,0.6713866591453552,-0.8544921278953552,-0.54931640625
0.745361328125,-0.133056640625,0.65478515625,0.2441406100988388,-0.7324218153953552,-0.9765624403953552
0.7406005859375,-0.126953125,0.6458740234375,0.8544921278953552,-0.30517578125,-1.220703125
0.7484130859375,-0.130126953125,0.6376953125,-0.4882812201976776,-0.6713866591453552,-0.54931640625
0.75146484375,-0.1282958984375,0.6448974609375,-0.54931640625,-1.4038084745407104,-0.30517578125
0.75048828125,-0.13330078125,0.6480712890625,2.44140625,-1.5869139432907104,-0.54931640625
0.7476806640625,-0.1395263671875,0.644287109375,0.6103515625,-2.13623046875,-0.6713866591453552
0.7470703125,-0.1400146484375,0.6563720703125,1.0986328125,-2.0751953125,0.4272460639476776
0.7445068359375,-0.13623046875,0.6597900390625,0.0610351525247097,-0.7934569716453552,1.15966796875
0.7459716796875,-0.1300048828125,0.651123046875,-1.5869139432907104,0.0610351525247097,1.8920897245407104
0.7406005859375,-0.1280517578125,0.657958984375,-0.6103515625,0.6103515625,1.8310545682907104
0.7415771484375,-0.1202392578125,0.64453125,0.4882812201976776,-0.8544921278953552,1.8310545682907104
0.7371826171875,-0.1219482421875,0.6561279296875,-0.7324218153953552,-1.2817381620407104,1.8310545682907104
0.7425537109375,-0.1199951171875,0.656494140625,-0.30517578125,-1.0986328125,1.5258787870407104
0.7421875,-0.1202392578125,0.6568603515625,0.1831054538488388,-0.0610351525247097,1.03759765625
0.7415771484375,-0.1171875,0.6513671875,-0.3662109076976776,0.1831054538488388,0.6103515625
0.7373046875,-0.12646484375,0.64892578125,0.4272460639476776,0.0610351525247097,0.54931640625
0.7359619140625,-0.1317138671875,0.6558837890625,-1.15966796875,-0.3662109076976776,0.7324218153953552
1.1690673828125,-0.376708984375,1.055419921875,-0.3662109076976776,-3.295898199081421,-22.216794967651367
1.1826171875,-0.419921875,1.1046142578125,27.404783248901367,0.3662109076976776,-17.51708984375
1.2630615234375,-0.3692626953125,1.173095703125,24.291990280151367,0.4272460639476776,-15.686034202575684
1.2960205078125,-0.405029296875,1.2476806640625,11.291502952575684,1.5869139432907104,-15.991209983825684
1.3099365234375,-0.4471435546875,1.242431640625,17.51708984375,2.563476324081421,-10.070799827575684
1.302734375,-0.4281005859375,1.199951171875,24.719236373901367,1.8920897245407104,1.8920897245407104
1.2198486328125,-0.4415283203125,1.15234375,5.920409679412842,0.1831054538488388,10.253905296325684
1.161376953125,-0.435546875,1.0343017578125,-0.1220703050494194,-1.5258787870407104,17.2119140625
1.086181640625,-0.4146728515625,0.9814453125,4.45556640625,-4.0283203125,23.193357467651367
1.014404296875,-0.3572998046875,0.9600830078125,-1.8920897245407104,-6.835937023162842,22.827146530151367
0.9644775390625,-0.3323974609375,0.920654296875,-5.981444835662842,-7.385253429412842,18.4326171875
0.9388427734375,-0.33740234375,0.8544921875,-0.3662109076976776,-7.812499523162842,16.29638671875
0.8836669921875,-0.3226318359375,0.852294921875,6.774901866912842,-9.6435546875,15.869139671325684
0.8280029296875,-0.2940673828125,0.8121337890625,5.615233898162842,-12.207030296325684,12.695311546325684
0.76171875,-0.290771484375,0.726806640625,4.21142578125,-15.441893577575684,7.873534679412842
0.7021484375,-0.27587890625,0.675048828125,8.97216796875,-17.2119140625,0.7934569716453552
0.65869140625,-0.235595703125,0.6962890625,17.08984375,-13.977049827575684,-5.920409679412842
0.5484619140625,-0.238525390625,0.5992431640625,16.78466796875,-10.314940452575684,-11.474608421325684
0.479248046875,-0.2392578125,0.4310302734375,21.057126998901367,-8.544921875,-18.61572265625
0.4384765625,-0.1717529296875,0.4293212890625,21.728513717651367,-8.6669921875,-22.155759811401367
0.41455078125,-0.154541015625,0.4244384765625,12.878417015075684,-5.310058116912842,-22.949216842651367
0.3953857421875,-0.17431640625,0.3458251953125,13.854979515075684,-1.220703125,-21.057126998901367
0.348876953125,-0.190673828125,0.3369140625,20.507810592651367,2.25830078125,-16.11328125
0.3101806640625,-0.099365234375,0.4482421875,-0.8544921278953552,6.835937023162842,-14.099120140075684
0.3370361328125,-0.0867919921875,0.37939453125,-22.827146530151367,9.82666015625,-7.568358898162842
0.3997802734375,-0.0577392578125,0.3094482421875,-17.4560546875,11.840819358825684,3.967284917831421
0.425537109375,-0.04833984375,0.329833984375,-13.061522483825684,11.840819358825684,17.39501953125
0.499267578125,-0.0567626953125,0.4329833984375,-26.123044967651367,9.58251953125,21.301267623901367
0.5262451171875,-0.0728759765625,0.458251953125,-17.333984375,7.202147960662842,21.789548873901367
0.6666259765625,-0.08349609375,0.423828125,2.624511480331421,2.50244140625,24.475095748901367
0.7083740234375,-0.1683349609375,0.587158203125,-3.967284917831421,-3.112792730331421,18.798828125
0.7076416015625,-0.155517578125,0.718994140625,-2.746581792831421,0.0610351525247097,9.6435546875
0.762939453125,-0.1903076171875,0.743896484375,3.356933355331421,3.051757574081421,9.09423828125
0.75830078125,-0.11572265625,0.7530517578125,-5.187987804412842,5.0048828125,10.620116233825684
0.7374267578125,-0.14990234375,0.7052001953125,-16.2353515625,4.638671875,11.779784202575684
0.7391357421875,-0.1717529296875,0.6636962890625,-19.47021484375,1.03759765625,13.061522483825684
0.74267578125,-0.1689453125,0.6502685546875,-17.63916015625,-3.295898199081421,13.427733421325684
0.7264404296875,-0.12939453125,0.6280517578125,-15.563963890075684,-5.615233898162842,11.962889671325684
0.7333984375,-0.111083984375,0.6171875,-12.878417015075684,-4.7607421875,10.070799827575684
0.695068359375,-0.1214599609375,0.6328125,-8.72802734375,-1.0986328125,7.019042491912842
0.6676025390625,-0.1279296875,0.612060546875,-6.652831554412842,1.8310545682907104,5.676269054412842
0.68017578125,-0.1279296875,0.619873046875,-5.0048828125,2.624511480331421,5.249022960662842
0.692138671875,-0.126220703125,0.635498046875,-1.7089842557907104,5.371093273162842,4.8828125
0.684814453125,-0.120361328125,0.6253662109375,-1.15966796875,7.751464366912842,1.5869139432907104
0.7044677734375,-0.154541015625,0.58935546875,-2.13623046875,7.690429210662842,0.1831054538488388
0.7110595703125,-0.1484375,0.6370849609375,3.356933355331421,6.286620616912842,-1.220703125
0.7032470703125,-0.13525390625,0.67724609375,10.620116233825684,5.859374523162842,-2.01416015625
0.7161865234375,-0.1083984375,0.6632080078125,8.23974609375,3.540038824081421,-2.197265625
0.7186279296875,-0.0999755859375,0.656982421875,6.347655773162842,1.4648436307907104,0.6713866591453552
0.7276611328125,-0.1080322265625,0.6497802734375,5.371093273162842,1.3427733182907104,2.197265625
0.7274169921875,-0.127685546875,0.664794921875,10.559081077575684,2.929687261581421,1.220703125
0.72265625,-0.1534423828125,0.6683349609375,11.108397483825684,3.845214605331421,-2.807616949081421
0.722900390625,-0.1640625,0.68212890625,10.986327171325684,3.234863042831421,-5.981444835662842
0.7156982421875,-0.1483154296875,0.693359375,11.352538108825684,1.8920897245407104,-6.469726085662842
0.7364501953125,-0.1173095703125,0.6845703125,6.958007335662842,0.1220703050494194,-5.615233898162842
0.7520751953125,-0.1798095703125,0.667236328125,3.417968511581421,0.54931640625,-6.286620616912842
0.7537841796875,-0.16357421875,0.6689453125,7.690429210662842,1.6479490995407104,-4.5166015625
0.7564697265625,-0.1507568359375,0.6778564453125,1.220703125,1.220703125,-2.38037109375
0.7510986328125,-0.1551513671875,0.6754150390625,0.0610351525247097,2.685546636581421,0.0
0.745361328125,-0.16796875,0.662841796875,2.929687261581421,4.45556640625,1.9531248807907104
0.7337646484375,-0.179931640625,0.6568603515625,2.807616949081421,4.82177734375,4.08935546875
0.723876953125,-0.169921875,0.6494140625,4.638671875,4.5166015625,5.981444835662842
0.725830078125,-0.1500244140625,0.6412353515625,0.9765624403953552,1.03759765625,7.080077648162842
0.72216796875,-0.148193359375,0.6444091796875,-1.15966796875,-2.01416015625,7.202147960662842
0.7310791015625,-0.1358642578125,0.6412353515625,0.0,-2.50244140625,6.286620616912842
0.7373046875,-0.1334228515625,0.63720703125,2.01416015625,-2.197265625,3.906249761581421
0.739013671875,-0.1319580078125,0.6402587890625,4.638671875,-1.8310545682907104,2.563476324081421
0.740234375,-0.1397705078125,0.652587890625,2.44140625,-1.6479490995407104,2.197265625
0.7452392578125,-0.139892578125,0.657470703125,0.8544921278953552,0.7324218153953552,2.990722417831421
0.73876953125,-0.1378173828125,0.643798828125,-0.3662109076976776,1.5258787870407104,3.173827886581421
0.7332763671875,-0.1456298828125,0.6346435546875,-0.9765624403953552,2.25830078125,2.746581792831421
0.7354736328125,-0.1500244140625,0.6287841796875,-0.30517578125,2.197265625,3.051757574081421
0.7386474609375,-0.1416015625,0.6256103515625,0.4272460639476776,2.3193359375,3.051757574081421
0.744140625,-0.138427734375,0.6279296875,1.4648436307907104,2.746581792831421,1.7700194120407104
0.7366943359375,-0.1275634765625,0.629638671875,3.906249761581421,2.563476324081421,0.4272460639476776
0.743408203125,-0.122314453125,0.64111328125,3.417968511581421,1.4038084745407104,-0.3662109076976776
0.7440185546875,-0.12744140625,0.6600341796875,1.2817381620407104,1.15966796875,-1.5258787870407104
0.7509765625,-0.1370849609375,0.65185546875,2.01416015625,1.6479490995407104,-2.197265625
0.744873046875,-0.138427734375,0.653564453125,4.150390625,1.5869139432907104,-2.50244140625
0.748046875,-0.1390380859375,0.6522216796875,1.6479490995407104,1.220703125,-2.44140625
0.7374267578125,-0.139892578125,0.654296875,-1.03759765625,1.3427733182907104,-3.295898199081421
0.7476806640625,-0.144775390625,0.6390380859375,0.0610351525247097,1.4038084745407104,-4.08935546875
0.7403564453125,-0.160400390625,0.643798828125,-0.2441406100988388,1.8920897245407104,-5.126952648162842
