aX,aY,aZ,gX,gY,gZ
0.5712890625,1.2398681640625,-0.61767578125,150.87890625,-156.982421875,-225.40281677246094
0.3994140625,0.7979736328125,-0.2957763671875,119.99510955810547,-152.03857421875,-248.90135192871094
0.1595458984375,0.42626953125,0.0506591796875,130.06591796875,-136.65771484375,-243.53025817871094
0.0421142578125,0.1304931640625,0.1671142578125,150.634765625,-116.63817596435547,-226.07420349121094
0.1951904296875,0.01220703125,0.1151123046875,102.53905487060547,-92.10204315185547,-209.28953552246094
0.2650146484375,0.006103515625,0.1148681640625,36.07177734375,-75.927734375,-189.57518005371094
0.260986328125,0.0634765625,0.3076171875,-12.390135765075684,-56.152339935302734,-167.78562927246094
0.4102783203125,-0.0882568359375,0.3096923828125,-19.6533203125,-43.273921966552734,-129.0283203125
0.583251953125,-0.05859375,0.3431396484375,-31.311033248901367,-34.66796875,-95.39794158935547
0.7677001953125,0.0693359375,0.383544921875,-29.357908248901367,-28.381345748901367,-68.17626953125
0.7977294921875,-0.0118408203125,0.4293212890625,-16.05224609375,-21.423337936401367,-44.677730560302734
0.8421630859375,-0.0435791015625,0.43798828125,-13.427733421325684,-12.084959983825684,-24.047849655151367
0.900634765625,-0.0322265625,0.40869140625,-1.0986328125,-5.187987804412842,-10.192870140075684
0.96630859375,0.0089111328125,0.4583740234375,-3.173827886581421,-5.126952648162842,-2.197265625
0.916748046875,0.059814453125,0.4559326171875,-0.6103515625,-3.662109136581421,2.3193359375
0.9715576171875,0.0205078125,0.353515625,0.6713866591453552,-0.9765624403953552,2.746581792831421
0.9398193359375,0.0679931640625,0.4002685546875,-8.85009765625,-1.8310545682907104,1.9531248807907104
0.876220703125,0.0728759765625,0.3486328125,-5.493163585662842,1.4648436307907104,2.563476324081421
0.9200439453125,0.082763671875,0.3177490234375,-1.6479490995407104,0.6713866591453552,8.6669921875
0.9385986328125,0.1380615234375,0.370849609375,-11.291502952575684,-2.685546636581421,7.751464366912842
0.8641357421875,0.16162109375,0.3944091796875,-9.8876953125,0.8544921278953552,6.408690929412842
0.9593505859375,0.1163330078125,0.33984375,-6.774901866912842,0.9765624403953552,10.620116233825684
0.9404296875,0.167236328125,0.37890625,-12.329100608825684,-0.6103515625,4.7607421875
0.8941650390625,0.1669921875,0.3687744140625,-7.385253429412842,2.25830078125,3.112792730331421
0.9337158203125,0.1572265625,0.35986328125,-4.7607421875,3.356933355331421,4.39453125
0.88427734375,0.1817626953125,0.3839111328125,-1.9531248807907104,2.929687261581421,2.3193359375
0.8856201171875,0.1646728515625,0.353759765625,5.187987804412842,2.50244140625,2.868652105331421
0.8779296875,0.16162109375,0.38037109375,9.033203125,4.2724609375,5.493163585662842
0.892822265625,0.1783447265625,0.3729248046875,4.150390625,6.652831554412842,5.065917491912842
0.890869140625,0.154052734375,0.356201171875,8.056640625,6.347655773162842,6.958007335662842
0.8570556640625,0.1336669921875,0.3780517578125,6.591796398162842,8.23974609375,12.695311546325684
0.889404296875,0.1297607421875,0.3721923828125,-2.563476324081421,10.192870140075684,14.465331077575684
0.88232421875,0.1318359375,0.3680419921875,-3.295898199081421,11.535643577575684,19.22607421875
0.84130859375,0.118408203125,0.3853759765625,-3.051757574081421,14.404295921325684,28.259275436401367
0.9031982421875,0.154296875,0.3724365234375,-2.990722417831421,17.39501953125,35.888671875
0.8475341796875,0.1234130859375,0.33642578125,2.13623046875,22.216794967651367,43.579097747802734
0.829833984375,0.133544921875,0.337158203125,2.25830078125,28.564451217651367,55.297847747802734
0.812744140625,0.1561279296875,0.327392578125,-3.601073980331421,36.62109375,63.293453216552734
0.8201904296875,0.2109375,0.2767333984375,-0.1831054538488388,40.832515716552734,74.0966796875
0.8499755859375,0.2403564453125,0.2581787109375,-5.310058116912842,45.349117279052734,78.857421875
0.7596435546875,0.2518310546875,0.245849609375,-8.544921875,47.546382904052734,87.76854705810547
0.8267822265625,0.3372802734375,0.22314453125,-10.375975608825684,52.185054779052734,95.52001190185547
0.79541015625,0.3529052734375,0.1737060546875,-22.155759811401367,52.978511810302734,98.99901580810547
0.7808837890625,0.499755859375,0.1429443359375,-28.503416061401367,56.335445404052734,101.19628143310547
0.768798828125,0.544189453125,0.1285400390625,-24.597166061401367,61.096187591552734,104.18700408935547
0.7393798828125,0.5882568359375,0.0555419921875,-25.695798873901367,60.546871185302734,107.23876190185547
0.7298583984375,0.6187744140625,0.0093994140625,-43.518062591552734,61.340328216552734,105.83495330810547
0.6597900390625,0.6346435546875,-0.0152587890625,-48.339839935302734,61.523433685302734,105.22460174560547
0.59765625,0.7672119140625,-0.0418701171875,-35.46142578125,62.255855560302734,106.01805877685547
0.601806640625,0.7374267578125,-0.1156005859375,-51.696773529052734,58.776851654052734,106.01805877685547
0.5596923828125,0.808349609375,-0.2049560546875,-44.616695404052734,54.992671966552734,103.57665252685547
0.543212890625,0.908935546875,-0.202880859375,-36.7431640625,50.170894622802734,96.86278533935547
0.438720703125,0.8499755859375,-0.2061767578125,-38.6962890625,46.325679779052734,88.25682830810547
0.41064453125,0.9293212890625,-0.2724609375,-26.184080123901367,44.250484466552734,83.43505096435547
0.4232177734375,0.9375,-0.2724609375,-32.04345703125,38.6962890625,74.5849609375
0.306640625,0.8941650390625,-0.2757568359375,-14.038084983825684,35.33935546875,74.0966796875
0.361083984375,0.95263671875,-0.3056640625,-16.11328125,35.2783203125,74.3408203125
0.3271484375,0.9693603515625,-0.3544921875,-14.953612327575684,31.249998092651367,69.64111328125
0.2896728515625,0.9349365234375,-0.3258056640625,-8.7890625,30.151365280151367,69.27490234375
0.293212890625,0.9964599609375,-0.3468017578125,-12.451170921325684,29.296873092651367,70.556640625
0.163330078125,0.96826171875,-0.31494140625,-19.775390625,27.465818405151367,63.232418060302734
0.1510009765625,0.9647216796875,-0.3553466796875,-12.451170921325684,28.503416061401367,66.7724609375
0.117919921875,0.9818115234375,-0.34716796875,-21.240232467651367,28.503416061401367,64.51416015625
0.045166015625,0.9276123046875,-0.336181640625,-19.59228515625,29.296873092651367,60.302730560302734
-0.0084228515625,0.9244384765625,-0.3865966796875,-12.145995140075684,30.822751998901367,57.067867279052734
0.019287109375,0.96484375,-0.3983154296875,-10.131834983825684,28.747556686401367,54.809566497802734
-0.1025390625,0.9349365234375,-0.3275146484375,-10.375975608825684,26.000974655151367,51.818843841552734
-0.1318359375,0.8853759765625,-0.341064453125,-4.8828125,26.245115280151367,51.025386810302734
-0.193359375,0.9034423828125,-0.3282470703125,4.0283203125,26.184080123901367,53.222652435302734
-0.1627197265625,0.937744140625,-0.361572265625,2.563476324081421,25.024412155151367,51.757808685302734
-0.180419921875,0.9478759765625,-0.360107421875,5.554198741912842,24.719236373901367,45.898433685302734
-0.1932373046875,0.8944091796875,-0.3782958984375,6.408690929412842,22.460935592651367,42.236324310302734
-0.247314453125,0.90576171875,-0.34619140625,3.845214605331421,24.414060592651367,39.9169921875
-0.2291259765625,0.9300537109375,-0.3282470703125,4.8828125,26.672361373901367,37.59765625
-0.24951171875,0.948974609375,-0.36083984375,5.126952648162842,28.259275436401367,34.72900390625
-0.2442626953125,0.9737548828125,-0.3936767578125,12.390135765075684,24.658201217651367,37.78076171875
-0.2913818359375,0.97314453125,-0.364990234375,-1.6479490995407104,22.277830123901367,24.963376998901367
-0.3135986328125,0.975341796875,-0.35595703125,-6.286620616912842,19.1650390625,16.90673828125
-0.30322265625,0.9549560546875,-0.3763427734375,-3.417968511581421,15.014647483825684,8.4228515625
-0.34423828125,0.9730224609375,-0.3492431640625,-3.356933355331421,10.864256858825684,-1.8310545682907104
-0.2821044921875,0.9359130859375,-0.3621826171875,-0.54931640625,6.591796398162842,-4.21142578125
-0.3173828125,0.95703125,-0.3450927734375,2.685546636581421,2.868652105331421,-8.97216796875
-0.2916259765625,0.918212890625,-0.3397216796875,6.347655773162842,-0.0610351525247097,-7.202147960662842
-0.2677001953125,0.90087890625,-0.3255615234375,5.371093273162842,-3.173827886581421,-6.469726085662842
-0.30224609375,0.8792724609375,-0.3060302734375,5.493163585662842,-2.624511480331421,-8.056640625
-0.30322265625,0.864013671875,-0.30859375,6.347655773162842,-2.197265625,-4.7607421875
-0.2724609375,0.878662109375,-0.3087158203125,6.530761241912842,-2.685546636581421,-3.356933355331421
-0.3179931640625,0.9149169921875,-0.2880859375,8.1787109375,-3.173827886581421,-5.859374523162842
-0.2752685546875,0.86083984375,-0.3370361328125,-1.7700194120407104,-5.859374523162842,-2.0751953125
-0.2740478515625,0.9100341796875,-0.3077392578125,-6.958007335662842,-5.798339366912842,-2.868652105331421
-0.262451171875,0.9188232421875,-0.290283203125,-5.310058116912842,-3.845214605331421,-3.417968511581421
-0.2344970703125,0.8980712890625,-0.304443359375,-7.080077648162842,-1.220703125,-3.479003667831421
-0.2659912109375,0.9033203125,-0.294921875,-2.685546636581421,0.4272460639476776,-2.624511480331421
-0.2532958984375,0.9307861328125,-0.277099609375,1.6479490995407104,2.990722417831421,-2.685546636581421
-0.260986328125,0.9266357421875,-0.3131103515625,4.21142578125,4.0283203125,-3.845214605331421
-0.2589111328125,0.93115234375,-0.3302001953125,4.33349609375,2.13623046875,-5.310058116912842
-0.2626953125,0.9161376953125,-0.334228515625,4.2724609375,0.7324218153953552,-7.202147960662842
-0.255859375,0.9061279296875,-0.3226318359375,7.202147960662842,-1.5869139432907104,-7.568358898162842
-0.2354736328125,0.903564453125,-0.3148193359375,6.591796398162842,-2.563476324081421,-5.554198741912842
-0.25146484375,0.89794921875,-0.30029296875,3.662109136581421,-3.173827886581421,-2.197265625
-0.2635498046875,0.880859375,-0.2972412109375,2.563476324081421,-2.3193359375,0.3662109076976776
-0.2431640625,0.892333984375,-0.315673828125,3.906249761581421,-0.6103515625,2.685546636581421
-0.2510986328125,0.9088134765625,-0.3087158203125,2.25830078125,0.54931640625,1.8310545682907104
-0.23974609375,0.9259033203125,-0.297119140625,-0.6103515625,2.25830078125,-0.3662109076976776
-0.2718505859375,0.94384765625,-0.2652587890625,0.3662109076976776,5.798339366912842,-4.57763671875
-0.23095703125,0.931884765625,-0.2882080078125,3.601073980331421,7.324218273162842,-6.835937023162842
-0.2611083984375,0.92724609375,-0.273681640625,-0.4882812201976776,7.751464366912842,-9.09423828125
-0.265625,0.909912109375,-0.28857421875,-2.685546636581421,8.9111328125,-7.568358898162842
-0.2303466796875,0.8984375,-0.3170166015625,-4.2724609375,10.375975608825684,-5.249022960662842
-0.2083740234375,0.9083251953125,-0.2977294921875,-6.652831554412842,12.145995140075684,-5.859374523162842
-0.2303466796875,0.9095458984375,-0.2919921875,-3.540038824081421,14.831542015075684,-4.33349609375
-0.22607421875,0.92333984375,-0.306640625,-2.3193359375,16.845703125,-0.4882812201976776
-0.2066650390625,0.9412841796875,-0.2998046875,-6.652831554412842,18.06640625,-0.54931640625
-0.239013671875,0.9222412109375,-0.2943115234375,-6.530761241912842,19.10400390625,-0.7934569716453552
-0.2373046875,0.909423828125,-0.3109130859375,-5.310058116912842,18.73779296875,2.13623046875
-0.23583984375,0.9256591796875,-0.2923583984375,-8.72802734375,15.991209983825684,1.220703125
-0.2935791015625,0.9090576171875,-0.309814453125,-6.103515148162842,11.169432640075684,1.9531248807907104
-0.28173828125,0.908935546875,-0.3289794921875,-4.21142578125,6.347655773162842,4.8828125
-0.291748046875,0.9349365234375,-0.3226318359375,-3.784179449081421,1.8920897245407104,3.295898199081421
-0.345703125,1.55029296875,-0.671875,-20.507810592651367,-80.26123046875,-150.390625
-0.3211669921875,1.4349365234375,-0.6944580078125,10.803221702575684,-108.94774627685547,-198.18113708496094
-0.18798828125,1.4725341796875,-0.6529541015625,41.870113372802734,-130.7373046875,-238.89158630371094
-0.01123046875,1.433837890625,-0.5828857421875,67.2607421875,-140.31982421875,-256.591796875
0.2501220703125,1.1529541015625,-0.62451171875,129.0283203125,-165.22215270996094,-266.29638671875
0.2777099609375,1.013916015625,-0.5267333984375,131.4697265625,-162.23143005371094,-275.20751953125
0.159423828125,0.6636962890625,-0.129638671875,113.83055877685547,-151.123046875,-283.02001953125
0.0401611328125,0.359375,-0.0439453125,123.47411346435547,-129.57763671875,-270.6298828125
0.286865234375,0.1558837890625,0.2696533203125,10.498045921325684,-75.1953125,-187.19480895996094
0.347412109375,0.0421142578125,0.3543701171875,-12.756346702575684,-62.499996185302734,-165.34422302246094
0.5615234375,-0.096435546875,0.2685546875,-23.071287155151367,-47.607418060302734,-129.45556640625
0.7132568359375,-0.00830078125,0.3990478515625,-31.127927780151367,-46.325679779052734,-92.28514862060547
0.7904052734375,0.0679931640625,0.472412109375,-24.047849655151367,-36.376953125,-71.47216796875
0.947265625,-0.065673828125,0.4857177734375,-16.29638671875,-29.663084030151367,-50.109859466552734
0.9248046875,-0.0892333984375,0.552734375,-6.408690929412842,-23.132322311401367,-36.07177734375
0.93505859375,-0.1002197265625,0.517822265625,-3.479003667831421,-10.253905296325684,-26.611326217651367
0.9306640625,-0.046630859375,0.4991455078125,-2.624511480331421,-3.662109136581421,-10.375975608825684
0.8826904296875,-0.0040283203125,0.4931640625,-1.9531248807907104,2.0751953125,-0.3662109076976776
0.9022216796875,0.007080078125,0.4317626953125,-7.202147960662842,4.2724609375,8.23974609375
0.8897705078125,0.0352783203125,0.3822021484375,2.13623046875,7.263183116912842,11.169432640075684
0.922119140625,0.0391845703125,0.3544921875,0.54931640625,6.896972179412842,13.549803733825684
0.955810546875,0.119873046875,0.3841552734375,-7.385253429412842,4.57763671875,9.94873046875
0.9107666015625,0.099365234375,0.4163818359375,-0.54931640625,3.234863042831421,7.873534679412842
0.91943359375,0.1112060546875,0.4007568359375,-4.2724609375,1.4038084745407104,11.291502952575684
0.9249267578125,0.1314697265625,0.374267578125,-15.869139671325684,2.685546636581421,8.1787109375
0.908935546875,0.1419677734375,0.3675537109375,-13.061522483825684,1.9531248807907104,6.652831554412842
0.9268798828125,0.14990234375,0.3936767578125,-16.357421875,2.44140625,7.446288585662842
0.922119140625,0.142822265625,0.40185546875,-12.268065452575684,4.150390625,9.1552734375
0.8973388671875,0.130859375,0.4232177734375,-7.751464366912842,5.737304210662842,13.427733421325684
0.9007568359375,0.1353759765625,0.4202880859375,-5.737304210662842,7.934569835662842,15.563963890075684
0.7913818359375,0.110595703125,0.396728515625,7.995604991912842,16.54052734375,24.414060592651367
0.828369140625,0.1126708984375,0.3468017578125,7.263183116912842,22.827146530151367,40.954586029052734
0.822509765625,0.175048828125,0.3753662109375,-1.7089842557907104,28.991697311401367,49.194332122802734
0.745849609375,0.108154296875,0.3787841796875,-1.15966796875,37.90283203125,64.63623046875
0.7794189453125,0.1287841796875,0.356201171875,-8.48388671875,44.677730560302734,79.2236328125
0.759521484375,0.1680908203125,0.3338623046875,-7.385253429412842,50.292964935302734,90.57616424560547
0.7476806640625,0.2161865234375,0.303466796875,-11.962889671325684,54.931636810302734,104.61425018310547
0.762451171875,0.27880859375,0.295654296875,-24.047849655151367,60.485836029052734,106.62841033935547
0.704345703125,0.3284912109375,0.259765625,-28.381345748901367,70.12939453125,109.31395721435547
0.7532958984375,0.4342041015625,0.15478515625,-35.09521484375,72.998046875,115.66161346435547
0.771484375,0.4871826171875,0.049072265625,-50.903316497802734,76.5380859375,113.28124237060547
0.6553955078125,0.635986328125,-0.0244140625,-28.503416061401367,77.63671875,112.30467987060547
0.761962890625,0.5928955078125,-0.0303955078125,-36.7431640625,66.71142578125,116.63817596435547
0.52587890625,0.6656494140625,-0.0244140625,-37.2314453125,66.83349609375,111.08397674560547
0.543701171875,0.7467041015625,-0.0860595703125,-9.033203125,65.185546875,115.29540252685547
0.55078125,0.7901611328125,-0.12890625,-15.380858421325684,60.302730560302734,114.01366424560547
0.497802734375,0.8822021484375,-0.1605224609375,-8.9111328125,61.279293060302734,110.59569549560547
0.5555419921875,0.9261474609375,-0.229248046875,-17.76123046875,55.236812591552734,104.18700408935547
0.41552734375,0.9075927734375,-0.24462890625,-19.47021484375,53.100582122802734,96.86278533935547
0.3740234375,0.97314453125,-0.1734619140625,-20.568845748901367,52.734371185302734,92.59032440185547
0.301025390625,0.954345703125,-0.2711181640625,-16.78466796875,53.100582122802734,85.02196502685547
0.302490234375,1.0146484375,-0.318603515625,-12.023924827575684,49.682613372802734,80.81053924560547
0.2503662109375,1.0308837890625,-0.309326171875,-18.37158203125,44.372554779052734,70.6787109375
0.1611328125,1.0311279296875,-0.3106689453125,-6.958007335662842,41.442867279052734,64.75830078125
0.1876220703125,1.018310546875,-0.3292236328125,-7.690429210662842,37.17041015625,58.593746185302734
0.12744140625,0.98193359375,-0.301025390625,-2.807616949081421,35.82763671875,51.513668060302734
0.0789794921875,0.98876953125,-0.2880859375,3.173827886581421,36.1328125,49.926753997802734
0.1077880859375,0.998046875,-0.32958984375,4.7607421875,32.958984375,48.583980560302734
0.0528564453125,0.9769287109375,-0.2978515625,-1.03759765625,26.794431686401367,46.386714935302734
0.0306396484375,1.013916015625,-0.2960205078125,2.929687261581421,23.010251998901367,45.898433685302734
0.0369873046875,1.0128173828125,-0.3192138671875,-3.234863042831421,19.34814453125,44.189449310302734
0.016845703125,0.9892578125,-0.3040771484375,-7.202147960662842,17.76123046875,38.87939453125
-0.0230712890625,0.9652099609375,-0.280029296875,-3.051757574081421,19.10400390625,35.09521484375
-0.0457763671875,0.970458984375,-0.2655029296875,-4.08935546875,19.83642578125,32.40966796875
-0.0775146484375,0.942138671875,-0.267578125,-0.54931640625,19.53125,33.447265625
-0.072509765625,0.944091796875,-0.287353515625,5.310058116912842,19.775390625,36.56005859375
-0.06591796875,0.9576416015625,-0.28271484375,5.0048828125,19.6533203125,34.11865234375
-0.10400390625,0.9564208984375,-0.2779541015625,4.82177734375,18.9208984375,36.92626953125
-0.13623046875,0.9483642578125,-0.2625732421875,3.906249761581421,17.76123046875,38.63525390625
-0.1522216796875,0.9471435546875,-0.2584228515625,1.5258787870407104,16.7236328125,37.90283203125
-0.2266845703125,0.9326171875,-0.2333984375,0.3662109076976776,15.380858421325684,36.0107421875
-0.2265625,0.913330078125,-0.2462158203125,-1.5869139432907104,14.343260765075684,39.9169921875
-0.2249755859375,0.9173583984375,-0.2431640625,2.624511480331421,12.512206077575684,42.907711029052734
-0.2574462890625,0.929443359375,-0.2603759765625,-5.554198741912842,13.610838890075684,34.11865234375
-0.2738037109375,0.936767578125,-0.2794189453125,-4.2724609375,12.512206077575684,34.48486328125
-0.260009765625,0.938720703125,-0.2940673828125,-6.164550304412842,10.253905296325684,35.888671875
-0.2730712890625,0.9814453125,-0.2728271484375,-5.0048828125,10.559081077575684,31.677244186401367
-0.328369140625,0.97900390625,-0.2911376953125,-0.7934569716453552,9.3994140625,28.686521530151367
-0.2659912109375,0.9771728515625,-0.3056640625,-5.126952648162842,9.33837890625,22.705076217651367
-0.37158203125,0.981689453125,-0.2816162109375,-3.051757574081421,7.446288585662842,9.94873046875
-0.337646484375,0.98583984375,-0.267822265625,3.906249761581421,3.906249761581421,7.995604991912842
-0.306640625,0.9571533203125,-0.2996826171875,0.1220703050494194,1.4648436307907104,-0.9765624403953552
-0.3642578125,0.95263671875,-0.27392578125,7.446288585662842,-2.0751953125,-5.615233898162842
-0.3125,0.912353515625,-0.2783203125,6.408690929412842,-3.540038824081421,-4.8828125
-0.3009033203125,0.9188232421875,-0.2711181640625,1.220703125,-3.845214605331421,-6.774901866912842
-0.323974609375,0.8890380859375,-0.25439453125,2.0751953125,-3.540038824081421,-5.432128429412842
-0.3265380859375,0.8878173828125,-0.2578125,6.408690929412842,-3.356933355331421,0.1220703050494194
-0.3028564453125,0.8641357421875,-0.2769775390625,2.38037109375,-4.33349609375,-0.4272460639476776
-0.3453369140625,0.8896484375,-0.2633056640625,4.57763671875,-5.065917491912842,-0.54931640625
-0.3189697265625,0.88720703125,-0.2635498046875,3.906249761581421,-6.103515148162842,3.112792730331421
-0.3165283203125,0.902099609375,-0.2459716796875,0.4272460639476776,-5.310058116912842,1.5258787870407104
-0.3282470703125,0.906494140625,-0.239990234375,3.295898199081421,-4.150390625,1.2817381620407104
-0.3133544921875,0.908203125,-0.2501220703125,1.15966796875,-2.50244140625,2.01416015625
-0.3173828125,0.9227294921875,-0.2403564453125,-3.173827886581421,-1.3427733182907104,0.6103515625
-0.2994384765625,0.943115234375,-0.250244140625,-3.479003667831421,0.2441406100988388,-0.1831054538488388
-0.30908203125,0.930908203125,-0.2589111328125,-2.624511480331421,0.3662109076976776,-1.5869139432907104
-0.3203125,0.9244384765625,-0.2542724609375,-3.234863042831421,-0.1220703050494194,-2.929687261581421
-0.308349609375,0.9248046875,-0.2568359375,-2.197265625,1.220703125,-3.356933355331421
-0.3011474609375,0.9140625,-0.2772216796875,0.6103515625,1.5258787870407104,-3.845214605331421
-0.3018798828125,0.90869140625,-0.2706298828125,2.25830078125,1.4648436307907104,-3.601073980331421
-0.30712890625,0.903564453125,-0.257568359375,3.112792730331421,1.7089842557907104,-2.685546636581421
-0.3035888671875,0.892578125,-0.255859375,3.479003667831421,1.8310545682907104,-0.30517578125
-0.31982421875,0.892822265625,-0.251220703125,5.554198741912842,1.5258787870407104,0.4882812201976776
-0.31494140625,0.8934326171875,-0.2520751953125,5.493163585662842,0.7934569716453552,2.807616949081421
-0.3201904296875,0.90185546875,-0.2572021484375,2.197265625,0.54931640625,2.01416015625
-0.31787109375,0.9151611328125,-0.2547607421875,3.051757574081421,-0.0610351525247097,0.3662109076976776
-0.317138671875,0.9100341796875,-0.2581787109375,2.0751953125,-1.7089842557907104,0.54931640625
-0.3126220703125,0.926513671875,-0.2452392578125,-0.54931640625,-2.38037109375,0.0610351525247097
-0.311767578125,0.9156494140625,-0.23974609375,0.2441406100988388,-2.197265625,-1.2817381620407104
-0.3255615234375,0.9088134765625,-0.24658203125,1.8920897245407104,-1.8310545682907104,-1.2817381620407104
-0.3079833984375,0.91845703125,-0.2510986328125,1.9531248807907104,-1.8920897245407104,-1.220703125
-0.30908203125,0.9141845703125,-0.247314453125,1.8310545682907104,-1.9531248807907104,-2.990722417831421
-0.3250732421875,0.9083251953125,-0.2457275390625,3.234863042831421,-1.7089842557907104,-2.25830078125
-0.2841796875,0.913818359375,-0.246826171875,3.051757574081421,-1.4648436307907104,0.0
-0.306396484375,0.9112548828125,-0.23974609375,1.4648436307907104,-1.7089842557907104,-0.4272460639476776
-0.3250732421875,0.9056396484375,-0.2308349609375,1.8920897245407104,-1.4648436307907104,0.8544921278953552
-0.2978515625,0.9000244140625,-0.2503662109375,1.03759765625,-1.4038084745407104,2.0751953125
-0.24755859375,1.6861572265625,-0.6761474609375,-56.457515716552734,-52.246089935302734,-114.37987518310547
-0.5047607421875,1.698974609375,-0.5872802734375,-46.020503997802734,-77.1484375,-173.70603942871094
-0.481689453125,1.42041015625,-0.49755859375,-28.076169967651367,-97.41210174560547,-216.91893005371094
-0.2281494140625,1.3026123046875,-0.53564453125,1.5869139432907104,-110.77880096435547,-247.86375427246094
0.16796875,1.4095458984375,-0.7039794921875,64.39208984375,-141.7236328125,-259.1552734375
0.4287109375,1.3377685546875,-0.8310546875,90.94237518310547,-166.32078552246094,-253.35691833496094
0.2061767578125,0.9307861328125,-0.3125,54.382320404052734,-156.73828125,-273.3154296875
-0.02880859375,0.5384521484375,-0.0499267578125,68.29833984375,-137.39013671875,-266.90673828125
0.051025390625,0.1051025390625,-0.064697265625,111.08397674560547,-120.66649627685547,-238.70848083496094
0.125244140625,0.06103515625,0.0107421875,94.05516815185547,-102.90526580810547,-216.55271911621094
0.2825927734375,0.2171630859375,0.1099853515625,54.504390716552734,-86.54784393310547,-191.22312927246094
0.324951171875,0.204345703125,0.159912109375,26.977537155151367,-71.71630859375,-161.56004333496094
0.4500732421875,0.0948486328125,0.253662109375,-2.25830078125,-58.044429779052734,-132.2021484375
0.572265625,0.03125,0.23486328125,-10.131834983825684,-44.189449310302734,-100.83007049560547
0.767333984375,0.07763671875,0.2220458984375,-15.624999046325684,-40.466304779052734,-77.1484375
0.865478515625,0.10986328125,0.3038330078125,-20.141599655151367,-36.7431640625,-64.14794921875
0.8675537109375,0.076416015625,0.381103515625,-18.6767578125,-32.71484375,-54.809566497802734
0.935302734375,-0.0120849609375,0.327880859375,-1.220703125,-25.695798873901367,-37.04833984375
0.9697265625,0.0042724609375,0.41796875,-0.6713866591453552,-25.085447311401367,-31.311033248901367
0.908203125,0.015869140625,0.40869140625,5.920409679412842,-15.991209983825684,-24.414060592651367
0.9874267578125,-0.0225830078125,0.3525390625,5.920409679412842,-10.253905296325684,-13.916014671325684
0.9573974609375,0.051513671875,0.4254150390625,0.1220703050494194,-8.9111328125,-8.6669921875
0.91845703125,0.044189453125,0.3592529296875,0.7324218153953552,-2.685546636581421,-7.812499523162842
0.94677734375,0.0281982421875,0.3258056640625,-4.7607421875,-4.7607421875,-5.371093273162842
0.884033203125,0.108642578125,0.414306640625,-9.21630859375,-3.051757574081421,-6.530761241912842
0.8994140625,0.0947265625,0.3072509765625,3.112792730331421,0.30517578125,0.0610351525247097
0.9342041015625,0.101806640625,0.309814453125,2.929687261581421,-2.624511480331421,1.4038084745407104
0.91162109375,0.1468505859375,0.337646484375,-0.9765624403953552,-1.9531248807907104,-0.1220703050494194
0.9005126953125,0.0919189453125,0.3145751953125,4.0283203125,1.9531248807907104,1.03759765625
0.927490234375,0.1143798828125,0.310546875,5.065917491912842,-0.30517578125,0.3662109076976776
0.9932861328125,0.15087890625,0.3577880859375,-0.1831054538488388,-2.01416015625,-0.4882812201976776
0.935791015625,0.1009521484375,0.3599853515625,-1.2817381620407104,-1.7089842557907104,-5.920409679412842
0.9244384765625,0.0863037109375,0.3603515625,0.0,-2.197265625,-6.408690929412842
0.937744140625,0.094970703125,0.3546142578125,-1.4648436307907104,-1.7089842557907104,-6.713866710662842
0.923095703125,0.0751953125,0.320068359375,-5.187987804412842,-0.4272460639476776,-3.784179449081421
0.878173828125,0.0604248046875,0.359130859375,-9.1552734375,2.807616949081421,3.112792730331421
0.8746337890625,0.0262451171875,0.35888671875,-9.70458984375,6.347655773162842,13.732909202575684
0.8758544921875,0.0390625,0.357421875,-4.8828125,11.718749046325684,29.235837936401367
0.879638671875,0.03955078125,0.37109375,-14.282225608825684,16.11328125,36.80419921875
0.8687744140625,0.0457763671875,0.3685302734375,-13.793944358825684,23.986814498901367,50.170894622802734
0.8619384765625,0.0655517578125,0.3642578125,-14.099120140075684,32.5927734375,62.194820404052734
0.8564453125,0.0828857421875,0.3162841796875,-17.333984375,41.687007904052734,67.7490234375
0.871337890625,0.1263427734375,0.3023681640625,-24.230955123901367,52.307125091552734,74.21875
0.890625,0.1468505859375,0.194580078125,-18.310546875,57.373043060302734,74.0966796875
0.877685546875,0.2745361328125,0.175048828125,-4.7607421875,54.870601654052734,80.68846893310547
0.869384765625,0.3582763671875,0.2274169921875,-19.22607421875,57.739253997802734,80.81053924560547
0.8077392578125,0.3939208984375,0.152587890625,-16.7236328125,60.729976654052734,80.68846893310547
0.7935791015625,0.3389892578125,0.1112060546875,-11.901854515075684,59.936519622802734,87.82958221435547
0.7293701171875,0.4498291015625,0.0694580078125,-9.82666015625,64.14794921875,89.47753143310547
0.8057861328125,0.534423828125,0.03515625,-2.563476324081421,67.138671875,91.43065643310547
0.7440185546875,0.5023193359375,-0.016845703125,-9.521484375,63.781734466552734,91.55272674560547
0.7698974609375,0.648193359375,-0.119384765625,-0.30517578125,60.302730560302734,94.60448455810547
0.757080078125,0.650634765625,-0.0684814453125,-18.9208984375,55.480953216552734,88.01268768310547
0.592529296875,0.593994140625,-0.103271484375,-10.009765625,55.358882904052734,90.88134002685547
0.656982421875,0.658447265625,-0.115966796875,-10.864256858825684,53.527828216552734,96.06932830810547
0.5831298828125,0.712158203125,-0.157958984375,-21.362302780151367,52.490230560302734,94.48241424560547
0.5819091796875,0.8135986328125,-0.1971435546875,-14.526366233825684,50.903316497802734,96.67967987060547
0.565673828125,0.791259765625,-0.2523193359375,-25.512693405151367,45.288082122802734,95.33690643310547
0.46630859375,0.8399658203125,-0.2398681640625,-24.963376998901367,43.273921966552734,92.22411346435547
0.491455078125,0.9215087890625,-0.29248046875,-25.695798873901367,40.527339935302734,88.80614471435547
0.354248046875,0.8629150390625,-0.2642822265625,-27.526853561401367,35.58349609375,84.41161346435547
0.2625732421875,0.918701171875,-0.2801513671875,-14.221190452575684,36.865234375,80.93260955810547
0.31298828125,0.9486083984375,-0.317626953125,-12.451170921325684,34.85107421875,77.69775390625
0.254150390625,0.9791259765625,-0.330322265625,-7.324218273162842,31.372068405151367,72.44873046875
0.2216796875,1.017822265625,-0.348876953125,-2.197265625,29.357908248901367,67.138671875
0.2032470703125,0.9422607421875,-0.3406982421875,-4.57763671875,27.587888717651367,62.805171966552734
0.08447265625,0.8863525390625,-0.26904296875,-1.2817381620407104,29.663084030151367,60.546871185302734
0.0556640625,0.8922119140625,-0.254638671875,3.723144292831421,33.75244140625,61.218257904052734
0.079833984375,0.919921875,-0.3284912109375,-9.70458984375,34.72900390625,61.218257904052734
0.0517578125,0.96875,-0.368408203125,-18.310546875,32.65380859375,58.471675872802734
0.040283203125,0.9853515625,-0.3812255859375,-22.949216842651367,29.418943405151367,58.959957122802734
-0.0074462890625,0.9512939453125,-0.3792724609375,-33.69140625,26.245115280151367,56.213375091552734
-0.06640625,0.935791015625,-0.3807373046875,-30.639646530151367,26.306150436401367,54.992671966552734
-0.0706787109375,0.9739990234375,-0.4136962890625,-18.06640625,25.878904342651367,57.861324310302734
-0.0843505859375,0.968017578125,-0.4232177734375,-21.911619186401367,25.817869186401367,44.372554779052734
-0.115478515625,0.983642578125,-0.4273681640625,-18.37158203125,25.695798873901367,41.015621185302734
-0.1376953125,0.947021484375,-0.4083251953125,-12.390135765075684,26.550291061401367,37.4755859375
-0.1776123046875,0.9268798828125,-0.392333984375,-3.051757574081421,27.832029342651367,33.87451171875
-0.2125244140625,0.9373779296875,-0.392578125,2.929687261581421,27.832029342651367,33.69140625
-0.19091796875,0.9268798828125,-0.406005859375,10.498045921325684,25.878904342651367,34.66796875
-0.216064453125,0.9228515625,-0.4053955078125,7.141112804412842,23.864744186401367,27.160642623901367
-0.2213134765625,0.9228515625,-0.41552734375,9.033203125,23.803709030151367,26.977537155151367
-0.2261962890625,0.922119140625,-0.413818359375,1.5869139432907104,23.315427780151367,21.301267623901367
-0.258544921875,0.947265625,-0.3939208984375,2.0751953125,22.521970748901367,17.08984375
-0.2662353515625,0.9439697265625,-0.4005126953125,3.417968511581421,18.5546875,15.502928733825684
-0.268798828125,0.9556884765625,-0.3978271484375,-0.0610351525247097,14.099120140075684,10.498045921325684
-0.2901611328125,0.9464111328125,-0.3946533203125,-0.3662109076976776,9.94873046875,2.868652105331421
-0.29345703125,0.9248046875,-0.40478515625,4.150390625,4.150390625,-0.7934569716453552
-0.2799072265625,0.927978515625,-0.3695068359375,4.638671875,-0.8544921278953552,-4.39453125
-0.28466796875,0.912109375,-0.354736328125,3.906249761581421,-2.50244140625,-7.507323741912842
-0.2652587890625,0.8736572265625,-0.3824462890625,5.554198741912842,-4.69970703125,-4.150390625
-0.25732421875,0.8768310546875,-0.3592529296875,5.554198741912842,-6.042479991912842,-1.7700194120407104
-0.2877197265625,0.8729248046875,-0.332763671875,5.187987804412842,-5.187987804412842,0.1831054538488388
-0.2640380859375,0.8533935546875,-0.3631591796875,5.737304210662842,-5.249022960662842,3.540038824081421
-0.2586669921875,0.8826904296875,-0.3602294921875,7.019042491912842,-6.835937023162842,5.0048828125
-0.2757568359375,0.8897705078125,-0.3350830078125,5.737304210662842,-6.469726085662842,4.39453125
-0.2821044921875,0.89453125,-0.335693359375,4.150390625,-4.8828125,4.150390625
-0.2655029296875,0.912841796875,-0.3212890625,3.723144292831421,-2.44140625,4.5166015625
-0.276123046875,0.9368896484375,-0.3267822265625,4.5166015625,0.4882812201976776,0.3662109076976776
-0.2808837890625,0.9228515625,-0.3438720703125,6.347655773162842,0.7934569716453552,-1.9531248807907104
-0.28125,0.904296875,-0.3587646484375,0.7324218153953552,-0.4882812201976776,-4.0283203125
-0.260009765625,0.880126953125,-0.367431640625,0.0,-0.9155272841453552,-4.21142578125
-0.265380859375,0.868896484375,-0.3575439453125,1.7700194120407104,-1.0986328125,-2.685546636581421
-0.2667236328125,0.86083984375,-0.353515625,3.051757574081421,-2.0751953125,1.4038084745407104
-0.2620849609375,0.884765625,-0.32861328125,2.3193359375,-2.38037109375,2.868652105331421
-0.28076171875,0.888916015625,-0.3355712890625,3.234863042831421,-2.0751953125,3.479003667831421
-0.2696533203125,0.9088134765625,-0.3414306640625,6.164550304412842,-3.112792730331421,4.39453125
-0.267578125,0.917724609375,-0.3299560546875,3.051757574081421,-3.417968511581421,3.295898199081421
-0.2852783203125,0.9127197265625,-0.32763671875,1.4038084745407104,-2.685546636581421,0.3662109076976776
-0.2869873046875,0.8858642578125,-0.3380126953125,3.845214605331421,-2.25830078125,-0.2441406100988388
-0.2891845703125,0.8865966796875,-0.326171875,1.8310545682907104,-1.8920897245407104,-0.7324218153953552
-0.2830810546875,0.882568359375,-0.3309326171875,0.1831054538488388,-1.3427733182907104,-1.6479490995407104
-0.2718505859375,0.8841552734375,-0.335205078125,2.0751953125,-0.9155272841453552,-0.6713866591453552
-0.280517578125,0.888671875,-0.3319091796875,1.8920897245407104,-1.03759765625,-0.2441406100988388
-0.2855224609375,0.8990478515625,-0.326171875,2.563476324081421,-1.5869139432907104,0.4272460639476776
-0.2684326171875,0.9083251953125,-0.3291015625,0.9155272841453552,-1.5258787870407104,0.4272460639476776
-0.2733154296875,0.9075927734375,-0.330322265625,0.6103515625,-2.01416015625,-0.30517578125
-0.2713623046875,0.900146484375,-0.3302001953125,1.03759765625,-2.44140625,0.0610351525247097
-0.27001953125,0.8927001953125,-0.32421875,-0.54931640625,-2.01416015625,0.2441406100988388
-0.3004150390625,1.577392578125,-0.6624755859375,-42.480464935302734,-58.898921966552734,-107.84911346435547
-0.37109375,1.4508056640625,-0.6109619140625,-38.14697265625,-80.56639862060547,-153.3203125
-0.2684326171875,1.3472900390625,-0.6348876953125,-13.854979515075684,-100.40282440185547,-192.19969177246094
-0.1097412109375,1.2491455078125,-0.670654296875,18.49365234375,-117.18749237060547,-222.16795349121094
0.034423828125,1.1676025390625,-0.6658935546875,59.692378997802734,-128.47900390625,-234.19187927246094
0.2313232421875,1.1748046875,-0.5682373046875,91.91893768310547,-135.7421875,-235.65672302246094
0.3111572265625,0.923095703125,-0.4769287109375,122.19237518310547,-148.74267578125,-234.25291442871094
0.136962890625,0.455078125,-0.163818359375,106.32323455810547,-139.22119140625,-247.55857849121094
0.0787353515625,0.3974609375,-0.087890625,110.53466033935547,-122.19237518310547,-240.35643005371094
0.1474609375,0.3035888671875,-0.039306640625,110.10741424560547,-104.30907440185547,-219.11619567871094
0.1729736328125,0.1378173828125,0.04345703125,94.90966033935547,-88.37889862060547,-197.14353942871094
0.33642578125,0.171142578125,0.07861328125,50.231929779052734,-77.2705078125,-172.91258239746094
0.4676513671875,0.210693359375,0.174072265625,18.310546875,-65.673828125,-154.1748046875
0.53955078125,0.162109375,0.2181396484375,-3.112792730331421,-55.175777435302734,-129.8828125
0.677734375,0.046142578125,0.2552490234375,-22.033689498901367,-43.640132904052734,-109.68016815185547
0.752197265625,0.01123046875,0.254638671875,-20.080564498901367,-41.259761810302734,-83.61815643310547
0.92578125,0.04931640625,0.37255859375,-35.5224609375,-39.24560546875,-66.58935546875
0.892822265625,0.063720703125,0.434814453125,-29.846189498901367,-34.912109375,-55.419918060302734
0.92236328125,-0.0306396484375,0.4080810546875,-24.841306686401367,-27.465818405151367,-43.945308685302734
0.9378662109375,-0.0655517578125,0.3861083984375,-26.184080123901367,-23.193357467651367,-31.738279342651367
0.8916015625,-0.0009765625,0.4449462890625,-19.59228515625,-14.526366233825684,-22.155759811401367
0.93017578125,-0.000244140625,0.3748779296875,-4.08935546875,-8.36181640625,-11.413573265075684
0.937255859375,0.0155029296875,0.3677978515625,-5.493163585662842,-7.141112804412842,-7.019042491912842
0.922119140625,0.0494384765625,0.3701171875,0.54931640625,-2.746581792831421,-3.967284917831421
0.9261474609375,0.038330078125,0.3934326171875,1.6479490995407104,-1.2817381620407104,-0.3662109076976776
0.9141845703125,0.0675048828125,0.3819580078125,1.3427733182907104,0.3662109076976776,2.197265625
0.9635009765625,0.065673828125,0.3572998046875,-2.44140625,2.0751953125,3.906249761581421
0.9337158203125,0.0908203125,0.3792724609375,-0.3662109076976776,1.3427733182907104,3.417968511581421
0.9261474609375,0.078857421875,0.3780517578125,-3.662109136581421,2.685546636581421,3.845214605331421
0.933349609375,0.0721435546875,0.351318359375,-7.995604991912842,3.723144292831421,4.2724609375
0.9033203125,0.08837890625,0.379150390625,-8.60595703125,5.554198741912842,8.056640625
0.9298095703125,0.0787353515625,0.35205078125,-6.042479991912842,6.469726085662842,14.282225608825684
0.915283203125,0.0653076171875,0.372802734375,-6.530761241912842,9.8876953125,19.34814453125
0.8175048828125,0.0306396484375,0.3568115234375,0.6713866591453552,18.1884765625,30.944822311401367
0.9111328125,0.069580078125,0.2913818359375,-2.44140625,21.789548873901367,43.457027435302734
0.921875,0.1007080078125,0.322021484375,-3.662109136581421,24.780271530151367,49.072261810302734
0.8353271484375,0.0938720703125,0.3079833984375,-1.6479490995407104,28.381345748901367,56.152339935302734
0.83837890625,0.086181640625,0.318115234375,-7.324218273162842,32.71484375,66.162109375
0.80078125,0.1334228515625,0.312744140625,-6.774901866912842,40.466304779052734,74.27978515625
0.7913818359375,0.1641845703125,0.2633056640625,-8.48388671875,46.264644622802734,85.44921112060547
0.752197265625,0.2662353515625,0.2296142578125,-12.573241233825684,50.537105560302734,94.97069549560547
0.8447265625,0.337646484375,0.1575927734375,-15.319823265075684,49.560543060302734,101.01317596435547
0.83984375,0.346923828125,0.0869140625,-12.634276390075684,45.104976654052734,104.79735565185547
0.7965087890625,0.37744140625,0.1309814453125,-17.578125,44.067378997802734,106.68944549560547
0.714111328125,0.45947265625,0.1402587890625,-17.51708984375,48.400875091552734,107.78807830810547
0.730224609375,0.5242919921875,0.0740966796875,-5.249022960662842,54.748531341552734,113.89159393310547
0.8021240234375,0.58251953125,0.029296875,-13.000487327575684,54.260250091552734,112.79296112060547
0.7808837890625,0.7384033203125,-0.033203125,-18.1884765625,54.443355560302734,107.17772674560547
0.6990966796875,0.7271728515625,-0.0277099609375,-21.423337936401367,52.673336029052734,104.12596893310547
0.6109619140625,0.7662353515625,-0.0433349609375,-22.033689498901367,51.147457122802734,102.35594940185547
0.5380859375,0.7757568359375,-0.0631103515625,-24.108884811401367,51.208492279052734,99.36522674560547
0.4619140625,0.776123046875,-0.0784912109375,-30.273435592651367,54.626461029052734,97.16796112060547
0.435791015625,0.8299560546875,-0.174560546875,-31.738279342651367,56.274410247802734,93.26171112060547
0.41259765625,0.8299560546875,-0.1844482421875,-39.6728515625,52.185054779052734,90.08788299560547
0.3626708984375,0.9365234375,-0.2493896484375,-17.7001953125,50.781246185302734,86.79198455810547
0.385009765625,0.96533203125,-0.2574462890625,-19.287109375,47.424312591552734,85.57128143310547
0.337646484375,0.9461669921875,-0.2484130859375,-31.616209030151367,42.114253997802734,80.13916015625
0.26513671875,1.008544921875,-0.2303466796875,-13.977049827575684,40.466304779052734,75.62255859375
0.2313232421875,0.9744873046875,-0.2203369140625,-15.747069358825684,37.9638671875,71.96044921875
0.2252197265625,0.974853515625,-0.2940673828125,-13.793944358825684,36.07177734375,65.673828125
0.2078857421875,1.009765625,-0.2928466796875,-12.268065452575684,31.616209030151367,60.241695404052734
0.1806640625,1.0167236328125,-0.3062744140625,-17.822265625,29.296873092651367,53.039546966552734
0.1368408203125,0.993896484375,-0.313232421875,-19.53125,27.770994186401367,47.180171966552734
0.1036376953125,0.9759521484375,-0.3184814453125,-26.184080123901367,27.343748092651367,42.846675872802734
0.1082763671875,0.9638671875,-0.36669921875,-31.127927780151367,28.625486373901367,38.75732421875
0.0875244140625,0.9844970703125,-0.3662109375,-32.77587890625,26.977537155151367,35.888671875
0.070556640625,1.0008544921875,-0.351318359375,-36.07177734375,23.864744186401367,31.738279342651367
0.06591796875,0.9534912109375,-0.3931884765625,-28.808591842651367,20.874021530151367,34.423828125
0.0213623046875,0.9222412109375,-0.400146484375,-27.770994186401367,19.8974609375,28.381345748901367
0.0150146484375,0.932861328125,-0.3822021484375,-17.27294921875,19.34814453125,26.794431686401367
0.017822265625,0.9498291015625,-0.4063720703125,-8.72802734375,20.446775436401367,25.573728561401367
0.0069580078125,0.948486328125,-0.42529296875,-5.859374523162842,19.95849609375,24.353025436401367
-0.011474609375,0.959228515625,-0.4327392578125,2.929687261581421,18.98193359375,22.583005905151367
-0.0247802734375,0.959716796875,-0.41162109375,4.0283203125,17.76123046875,20.751951217651367
-0.0531005859375,0.95263671875,-0.393310546875,-2.990722417831421,17.333984375,16.4794921875
-0.064697265625,0.9171142578125,-0.4039306640625,1.03759765625,17.51708984375,14.282225608825684
-0.0758056640625,0.9012451171875,-0.4063720703125,1.8920897245407104,19.47021484375,13.854979515075684
-0.0882568359375,0.88818359375,-0.4202880859375,-0.6713866591453552,14.831542015075684,17.02880859375
-0.101806640625,0.836669921875,-0.4110107421875,-7.629394054412842,10.620116233825684,20.080564498901367
-0.15771484375,0.8603515625,-0.3800048828125,-5.126952648162842,11.230467796325684,20.080564498901367
-0.1790771484375,0.91552734375,-0.3402099609375,-5.065917491912842,14.099120140075684,15.319823265075684
-0.16259765625,0.9239501953125,-0.3875732421875,-0.30517578125,19.10400390625,15.930174827575684
-0.1651611328125,0.939697265625,-0.4476318359375,-3.051757574081421,18.4326171875,13.732909202575684
-0.1719970703125,0.9693603515625,-0.4556884765625,-3.173827886581421,14.953612327575684,12.634276390075684
-0.168701171875,0.9615478515625,-0.4476318359375,-3.356933355331421,11.413573265075684,11.901854515075684
-0.1912841796875,0.9473876953125,-0.4281005859375,-4.69970703125,8.9111328125,9.1552734375
-0.203125,0.887939453125,-0.42333984375,-4.2724609375,6.469726085662842,7.141112804412842
-0.2071533203125,0.87060546875,-0.40380859375,-1.3427733182907104,5.981444835662842,7.812499523162842
-0.215087890625,0.8980712890625,-0.38818359375,1.7089842557907104,6.591796398162842,6.530761241912842
-0.2132568359375,0.8980712890625,-0.4080810546875,2.624511480331421,5.615233898162842,4.0283203125
-0.2021484375,0.8983154296875,-0.432861328125,3.662109136581421,3.784179449081421,3.723144292831421
-0.2137451171875,0.919921875,-0.4234619140625,4.8828125,1.7700194120407104,1.4038084745407104
-0.201171875,0.9097900390625,-0.4168701171875,4.8828125,-0.1220703050494194,0.9155272841453552
-0.2083740234375,0.8887939453125,-0.388671875,1.9531248807907104,-1.5869139432907104,-0.1831054538488388
-0.2265625,0.886962890625,-0.3797607421875,4.638671875,-1.9531248807907104,0.3662109076976776
-0.2137451171875,0.883544921875,-0.3900146484375,5.554198741912842,-2.807616949081421,1.0986328125
-0.2008056640625,0.8917236328125,-0.3973388671875,3.906249761581421,-3.784179449081421,0.6103515625
-0.2017822265625,0.8892822265625,-0.392578125,3.540038824081421,-4.39453125,0.4272460639476776
-0.204833984375,0.8843994140625,-0.3817138671875,4.21142578125,-3.967284917831421,0.4882812201976776
-0.207275390625,0.8756103515625,-0.3656005859375,2.746581792831421,-2.624511480331421,0.6713866591453552
-0.206298828125,0.888427734375,-0.373291015625,4.69970703125,-1.03759765625,1.7089842557907104
-0.2159423828125,0.9058837890625,-0.37109375,7.019042491912842,-0.8544921278953552,2.01416015625
-0.21484375,0.9158935546875,-0.3682861328125,4.45556640625,-2.38037109375,1.3427733182907104
-0.205322265625,0.9171142578125,-0.376220703125,4.21142578125,-3.479003667831421,0.6103515625
-0.201171875,0.911376953125,-0.36962890625,2.746581792831421,-3.784179449081421,0.30517578125
-0.212646484375,0.9031982421875,-0.3624267578125,2.197265625,-2.868652105331421,0.1831054538488388
-0.21337890625,0.89453125,-0.3671875,1.7089842557907104,-1.8920897245407104,0.0
-0.2125244140625,0.89208984375,-0.3719482421875,1.7700194120407104,-1.5258787870407104,0.1831054538488388
-0.2100830078125,0.89990234375,-0.3665771484375,1.3427733182907104,-1.4648436307907104,-0.1831054538488388
-0.2147216796875,0.8936767578125,-0.3670654296875,1.4038084745407104,-1.7089842557907104,-0.4882812201976776
-0.2144775390625,0.892822265625,-0.369140625,1.8920897245407104,-2.563476324081421,0.0
-0.214111328125,0.89111328125,-0.3687744140625,2.929687261581421,-3.295898199081421,0.30517578125
-0.2152099609375,0.9005126953125,-0.368896484375,2.38037109375,-3.112792730331421,0.54931640625
-0.2083740234375,0.899169921875,-0.3668212890625,1.4648436307907104,-2.44140625,0.3662109076976776
-0.2177734375,0.9010009765625,-0.36962890625,1.5258787870407104,-2.44140625,0.1831054538488388
-0.2154541015625,0.8995361328125,-0.371337890625,1.9531248807907104,-2.624511480331421,0.2441406100988388
-0.210205078125,0.905029296875,-0.369140625,0.9765624403953552,-2.929687261581421,-0.4882812201976776
-0.4183349609375,1.6339111328125,-0.62109375,-29.663084030151367,-48.706050872802734,-123.90135955810547
-0.527099609375,1.6488037109375,-0.6226806640625,-17.7001953125,-61.889644622802734,-166.07664489746094
-0.4630126953125,1.6600341796875,-0.6798095703125,-4.7607421875,-83.19091033935547,-227.84422302246094
-0.2474365234375,1.6610107421875,-0.758544921875,27.465818405151367,-114.68505096435547,-270.08056640625
0.0068359375,1.6932373046875,-0.806884765625,88.19579315185547,-152.77099609375,-301.81884765625
0.1907958984375,1.2911376953125,-0.728759765625,106.32323455810547,-179.38230895996094,-311.03515625
-0.1031494140625,0.2947998046875,-0.090087890625,117.67577362060547,-146.05712890625,-306.5185546875
0.0255126953125,-0.01708984375,0.0531005859375,98.81591033935547,-129.45556640625,-279.6630859375
-0.0252685546875,0.0174560546875,0.1202392578125,77.63671875,-111.26708221435547,-258.85009765625
-0.116943359375,-0.070556640625,0.2969970703125,26.977537155151367,-89.35546112060547,-213.13475036621094
0.218017578125,-0.0655517578125,0.289794921875,17.578125,-67.0166015625,-169.43357849121094
0.4683837890625,-0.1195068359375,0.1983642578125,14.282225608825684,-53.771968841552734,-120.42235565185547
0.6661376953125,0.0482177734375,0.3701171875,-2.0751953125,-44.372554779052734,-85.32714080810547
0.802978515625,0.010498046875,0.5130615234375,-5.798339366912842,-33.63037109375,-55.419918060302734
0.9017333984375,-0.10009765625,0.572998046875,-20.935056686401367,-30.761716842651367,-36.07177734375
0.967041015625,-0.103271484375,0.554443359375,-19.53125,-20.568845748901367,-26.916501998901367
0.95703125,-0.109375,0.5555419921875,-18.37158203125,-12.084959983825684,-15.930174827575684
0.9166259765625,-0.0341796875,0.522216796875,-27.954099655151367,-4.150390625,-11.596678733825684
0.90478515625,-0.0107421875,0.423828125,-20.141599655151367,-0.3662109076976776,-3.540038824081421
0.92529296875,0.0311279296875,0.426513671875,-9.94873046875,-2.3193359375,2.01416015625
0.912841796875,0.0555419921875,0.4384765625,-10.009765625,-0.4882812201976776,0.6713866591453552
0.905517578125,-0.000244140625,0.4163818359375,-9.8876953125,3.784179449081421,2.3193359375
0.927734375,0.0675048828125,0.451904296875,-5.0048828125,6.958007335662842,9.033203125
0.9232177734375,0.0904541015625,0.4388427734375,2.0751953125,9.27734375,7.751464366912842
0.931884765625,0.0626220703125,0.3663330078125,4.08935546875,10.314940452575684,7.568358898162842
0.9395751953125,0.0955810546875,0.375732421875,-4.39453125,9.33837890625,5.493163585662842
0.90380859375,0.1204833984375,0.3653564453125,-2.197265625,10.314940452575684,1.2817381620407104
0.9002685546875,0.111572265625,0.3355712890625,2.0751953125,9.70458984375,4.150390625
0.9190673828125,0.132568359375,0.3160400390625,-0.0610351525247097,7.751464366912842,3.662109136581421
0.9058837890625,0.128173828125,0.310302734375,0.1831054538488388,4.94384765625,3.784179449081421
0.9239501953125,0.133056640625,0.340087890625,-5.065917491912842,4.21142578125,4.33349609375
0.919677734375,0.1041259765625,0.3360595703125,-6.347655773162842,3.295898199081421,4.45556640625
0.9039306640625,0.085205078125,0.354736328125,-4.5166015625,4.150390625,9.21630859375
0.898681640625,0.0767822265625,0.3966064453125,-5.615233898162842,7.202147960662842,18.37158203125
0.8927001953125,0.0897216796875,0.3807373046875,-5.615233898162842,10.681151390075684,23.254392623901367
0.934326171875,0.0869140625,0.33935546875,-8.60595703125,12.939452171325684,27.893064498901367
0.89697265625,0.095458984375,0.3851318359375,-13.061522483825684,17.39501953125,33.99658203125
0.8828125,0.1103515625,0.3726806640625,-11.901854515075684,25.268552780151367,42.053218841552734
0.879638671875,0.1309814453125,0.32861328125,-4.0283203125,29.968259811401367,51.208492279052734
0.847412109375,0.158935546875,0.3365478515625,-7.019042491912842,35.400390625,59.448238372802734
0.828369140625,0.180419921875,0.30859375,-10.620116233825684,42.968746185302734,65.7958984375
0.8145751953125,0.187744140625,0.2340087890625,-10.314940452575684,45.959468841552734,72.93701171875
0.772216796875,0.22607421875,0.2315673828125,-11.718749046325684,47.241207122802734,82.03124237060547
0.688720703125,0.2452392578125,0.2283935546875,-17.4560546875,46.508785247802734,94.48241424560547
0.731689453125,0.3814697265625,0.18505859375,-14.343260765075684,49.316402435302734,102.60009002685547
0.81103515625,0.4007568359375,0.0400390625,5.065917491912842,52.734371185302734,108.88671112060547
0.7852783203125,0.446533203125,0.078369140625,9.27734375,47.912593841552734,114.31884002685547
0.7525634765625,0.5892333984375,0.07861328125,-2.746581792831421,49.560543060302734,114.74608612060547
0.7801513671875,0.6990966796875,-0.0045166015625,-4.638671875,46.569820404052734,113.15917205810547
0.75146484375,0.648193359375,-0.046875,-13.610838890075684,40.710445404052734,112.54882049560547
0.604736328125,0.755126953125,-0.013671875,-26.977537155151367,39.24560546875,108.27635955810547
0.6065673828125,0.786865234375,-0.0086669921875,-36.56005859375,38.26904296875,102.78319549560547
0.5162353515625,0.8228759765625,-0.0657958984375,-32.2265625,41.442867279052734,100.70800018310547
0.53271484375,0.8392333984375,-0.099365234375,-27.954099655151367,43.151851654052734,98.26659393310547
0.4559326171875,0.859375,-0.122802734375,-23.803709030151367,43.090816497802734,92.89550018310547
0.434326171875,0.958251953125,-0.1358642578125,-8.30078125,42.358394622802734,91.00341033935547
0.4603271484375,0.9500732421875,-0.1844482421875,-11.108397483825684,38.2080078125,85.75438690185547
0.3477783203125,0.944580078125,-0.14453125,-3.845214605331421,36.376953125,80.93260955810547
0.3310546875,1.005615234375,-0.13134765625,-4.150390625,35.82763671875,78.2470703125
0.300537109375,0.9556884765625,-0.16357421875,-8.97216796875,34.85107421875,72.20458984375
0.244140625,1.00146484375,-0.18505859375,-8.4228515625,34.5458984375,67.626953125
0.250244140625,1.0108642578125,-0.2186279296875,-20.690916061401367,31.982419967651367,62.011714935302734
0.169921875,0.978515625,-0.2008056640625,-19.47021484375,28.991697311401367,57.189937591552734
0.1229248046875,0.9881591796875,-0.1888427734375,-20.141599655151367,28.137205123901367,54.870601654052734
0.14453125,1.028564453125,-0.2276611328125,-23.864744186401367,27.832029342651367,49.743648529052734
0.09619140625,1.0228271484375,-0.22705078125,-14.892577171325684,26.062009811401367,44.860836029052734
0.0865478515625,1.0115966796875,-0.2340087890625,-9.521484375,25.573728561401367,41.687007904052734
0.0804443359375,1.024169921875,-0.262451171875,-6.103515148162842,23.925779342651367,36.43798828125
0.0247802734375,0.9942626953125,-0.239501953125,-5.554198741912842,22.766111373901367,31.005857467651367
0.015380859375,0.9881591796875,-0.2606201171875,0.54931640625,22.277830123901367,31.066892623901367
0.043701171875,1.001220703125,-0.26611328125,-3.479003667831421,20.141599655151367,26.489255905151367
0.0030517578125,0.97900390625,-0.2535400390625,-5.249022960662842,18.4326171875,24.414060592651367
0.0013427734375,0.995361328125,-0.2489013671875,-8.4228515625,19.59228515625,25.573728561401367
0.005126953125,0.965576171875,-0.2742919921875,-6.713866710662842,18.24951171875,29.846189498901367
-0.03515625,0.9345703125,-0.2418212890625,-13.671874046325684,18.49365234375,23.864744186401367
-0.079345703125,0.9339599609375,-0.236572265625,-11.840819358825684,17.7001953125,25.268552780151367
-0.08447265625,0.9305419921875,-0.24853515625,-11.779784202575684,17.02880859375,26.611326217651367
-0.081787109375,0.9542236328125,-0.26220703125,-7.324218273162842,16.357421875,27.526853561401367
-0.089111328125,0.9495849609375,-0.275146484375,-5.371093273162842,16.6015625,27.282712936401367
-0.1365966796875,0.9537353515625,-0.279052734375,-2.746581792831421,16.78466796875,27.221677780151367
-0.13720703125,0.97607421875,-0.295654296875,0.7324218153953552,14.160155296325684,28.991697311401367
-0.1248779296875,1.00732421875,-0.31005859375,1.5258787870407104,12.390135765075684,27.160642623901367
-0.1392822265625,0.9708251953125,-0.29833984375,-1.9531248807907104,10.375975608825684,21.911619186401367
-0.1669921875,0.951171875,-0.2889404296875,-0.8544921278953552,11.047362327575684,18.49365234375
-0.173095703125,0.9364013671875,-0.2646484375,-0.0610351525247097,13.244627952575684,18.6767578125
-0.1632080078125,0.951904296875,-0.2835693359375,-0.9155272841453552,15.930174827575684,18.85986328125
-0.1822509765625,0.9241943359375,-0.2935791015625,-0.1220703050494194,17.51708984375,21.118162155151367
-0.2244873046875,0.9041748046875,-0.2860107421875,-18.49365234375,14.709471702575684,20.812986373901367
-0.2220458984375,0.9306640625,-0.277587890625,-18.06640625,11.840819358825684,23.315427780151367
-0.2362060546875,0.9046630859375,-0.3035888671875,-11.352538108825684,10.192870140075684,21.667478561401367
-0.2406005859375,0.913818359375,-0.3167724609375,-18.49365234375,7.873534679412842,20.874021530151367
-0.2769775390625,0.9263916015625,-0.320556640625,-21.423337936401367,3.723144292831421,19.22607421875
-0.28515625,0.9334716796875,-0.3328857421875,-15.747069358825684,-0.4882812201976776,17.4560546875
-0.2864990234375,0.924072265625,-0.336181640625,-14.465331077575684,-3.051757574081421,15.808104515075684
-0.285400390625,0.9384765625,-0.34228515625,-13.122557640075684,-4.8828125,9.3994140625
-0.3031005859375,0.91357421875,-0.34228515625,-6.347655773162842,-5.493163585662842,6.042479991912842
-0.2999267578125,0.9271240234375,-0.3387451171875,0.4882812201976776,-5.859374523162842,4.150390625
-0.2760009765625,0.9229736328125,-0.3438720703125,3.967284917831421,-5.493163585662842,1.9531248807907104
-0.272216796875,0.924072265625,-0.357421875,6.164550304412842,-5.493163585662842,-1.6479490995407104
-0.2783203125,0.9222412109375,-0.349853515625,9.8876953125,-6.225585460662842,-3.173827886581421
-0.2857666015625,0.9033203125,-0.3466796875,10.070799827575684,-7.385253429412842,-4.69970703125
-0.2889404296875,0.896240234375,-0.354248046875,7.751464366912842,-8.30078125,-5.554198741912842
-0.2957763671875,0.892578125,-0.3529052734375,6.225585460662842,-8.4228515625,-6.530761241912842
-0.2784423828125,0.88916015625,-0.35107421875,6.164550304412842,-8.72802734375,-5.493163585662842
-0.2950439453125,0.8935546875,-0.3251953125,4.2724609375,-8.4228515625,-4.39453125
-0.290771484375,0.8853759765625,-0.3328857421875,3.417968511581421,-7.629394054412842,-3.479003667831421
-0.2882080078125,0.900390625,-0.319091796875,3.173827886581421,-7.995604991912842,-3.234863042831421
-0.2672119140625,0.9140625,-0.312744140625,2.563476324081421,-7.446288585662842,-2.868652105331421
-0.284423828125,0.920166015625,-0.29736328125,2.44140625,-6.164550304412842,-3.356933355331421
-0.2705078125,0.9122314453125,-0.314208984375,3.540038824081421,-5.187987804412842,-2.3193359375
-0.2713623046875,0.9144287109375,-0.2960205078125,3.784179449081421,-3.540038824081421,-4.7607421875
-0.274658203125,0.9041748046875,-0.2889404296875,5.737304210662842,-0.6103515625,-7.934569835662842
-0.2794189453125,0.902587890625,-0.289306640625,5.554198741912842,0.6103515625,-6.958007335662842
-0.2672119140625,0.914306640625,-0.2972412109375,6.408690929412842,0.6713866591453552,-5.126952648162842
-0.260986328125,0.919677734375,-0.2822265625,5.126952648162842,0.54931640625,-5.126952648162842
-0.265625,0.890625,-0.2872314453125,5.0048828125,0.7324218153953552,-3.540038824081421
-0.2581787109375,0.8720703125,-0.292236328125,4.82177734375,2.807616949081421,-1.4038084745407104
-0.26220703125,0.87646484375,-0.284423828125,2.685546636581421,6.164550304412842,0.7324218153953552
-0.3792724609375,1.550537109375,-0.7501220703125,-23.742673873901367,-53.710933685302734,-111.08397674560547
-0.44140625,1.5892333984375,-0.8079833984375,-6.103515148162842,-80.62743377685547,-167.48045349121094
-0.402099609375,1.5482177734375,-0.8072509765625,7.934569835662842,-110.22948455810547,-220.21482849121094
-0.3157958984375,1.5255126953125,-0.7652587890625,42.297359466552734,-138.7939453125,-258.97216796875
-0.0634765625,1.386474609375,-0.83935546875,84.22850799560547,-172.24119567871094,-280.2734375
0.1492919921875,1.2501220703125,-0.665771484375,88.37889862060547,-190.24656677246094,-300.048828125
0.1309814453125,0.82421875,-0.195068359375,70.37353515625,-187.56101989746094,-313.53759765625
-0.05517578125,0.1968994140625,-0.017578125,92.40721893310547,-173.03465270996094,-303.64990234375
0.03076171875,0.05078125,0.2044677734375,76.171875,-144.10400390625,-251.28172302246094
0.081787109375,0.076416015625,0.258544921875,62.072750091552734,-112.91503143310547,-216.43064880371094
0.137939453125,-0.1038818359375,0.2774658203125,29.785154342651367,-77.33154296875,-182.25096130371094
0.4407958984375,-0.201171875,0.2423095703125,27.343748092651367,-50.231929779052734,-136.04736328125
0.65673828125,-0.0450439453125,0.3338623046875,26.916501998901367,-43.395992279052734,-89.90477752685547
0.8016357421875,-0.0006103515625,0.5960693359375,18.9208984375,-39.9169921875,-59.326168060302734
0.84521484375,-0.2210693359375,0.5599365234375,21.972654342651367,-28.076169967651367,-49.194332122802734
0.9425048828125,-0.37109375,0.4420166015625,9.94873046875,-20.446775436401367,-30.761716842651367
1.0078125,-0.1932373046875,0.5794677734375,-0.4882812201976776,-18.37158203125,-16.05224609375
0.97412109375,-0.153076171875,0.665771484375,-7.690429210662842,-12.756346702575684,-13.366698265075684
0.93603515625,-0.17919921875,0.5941162109375,-12.268065452575684,-3.295898199081421,-4.94384765625
0.9254150390625,-0.18408203125,0.46484375,-7.568358898162842,-0.4272460639476776,4.638671875
0.9141845703125,-0.115966796875,0.438232421875,-11.840819358825684,0.30517578125,8.48388671875
0.9058837890625,-0.0638427734375,0.4599609375,-12.695311546325684,2.624511480331421,11.474608421325684
0.86865234375,-0.046875,0.430419921875,-1.5869139432907104,6.042479991912842,14.282225608825684
0.897705078125,-0.0474853515625,0.434326171875,2.929687261581421,4.45556640625,19.95849609375
0.8768310546875,0.0032958984375,0.467041015625,1.8920897245407104,5.737304210662842,24.353025436401367
0.870849609375,-0.02490234375,0.463623046875,4.82177734375,12.634276390075684,32.470703125
0.891357421875,-0.0224609375,0.455078125,-1.03759765625,16.66259765625,40.588375091552734
0.846923828125,0.0284423828125,0.4932861328125,-5.187987804412842,22.094724655151367,48.950191497802734
0.802734375,0.0172119140625,0.5230712890625,-15.380858421325684,31.555173873901367,62.072750091552734
0.796875,0.007080078125,0.46728515625,-24.719236373901367,39.73388671875,73.1201171875
0.824462890625,0.0546875,0.3634033203125,-19.1650390625,48.522945404052734,82.51952362060547
0.8087158203125,0.1302490234375,0.3331298828125,-14.282225608825684,53.771968841552734,88.25682830810547
0.8658447265625,0.227294921875,0.306640625,-20.202634811401367,56.579586029052734,88.25682830810547
0.88134765625,0.2711181640625,0.2010498046875,-23.132322311401367,54.321285247802734,87.03612518310547
0.841064453125,0.3153076171875,0.193359375,-27.893064498901367,53.649898529052734,88.07372283935547
0.8162841796875,0.3304443359375,0.20849609375,-39.85595703125,55.175777435302734,90.14891815185547
0.68896484375,0.3770751953125,0.2120361328125,-37.04833984375,62.072750091552734,93.81102752685547
0.640625,0.4306640625,0.1690673828125,-21.850584030151367,71.044921875,102.72216033935547
0.645263671875,0.455078125,0.0716552734375,-22.583005905151367,72.509765625,108.33739471435547
0.6484375,0.6177978515625,-0.0264892578125,-18.00537109375,72.44873046875,109.19188690185547
0.770263671875,0.685546875,-0.1378173828125,-20.385740280151367,65.91796875,105.34667205810547
0.6785888671875,0.7125244140625,-0.161865234375,-15.563963890075684,59.936519622802734,99.24315643310547
0.6900634765625,0.7550048828125,-0.1025390625,-12.756346702575684,58.959957122802734,96.86278533935547
0.6165771484375,0.79052734375,-0.12255859375,-12.573241233825684,61.523433685302734,90.57616424560547
0.5703125,0.7734375,-0.177978515625,-2.13623046875,59.326168060302734,89.17235565185547
0.5614013671875,0.8448486328125,-0.1895751953125,-5.859374523162842,59.143062591552734,87.15819549560547
0.542236328125,0.89013671875,-0.2415771484375,-8.9111328125,54.687496185302734,83.06884002685547
0.3037109375,0.9117431640625,-0.2755126953125,-20.080564498901367,38.14697265625,66.34521484375
0.32080078125,0.9451904296875,-0.3314208984375,-21.789548873901367,36.9873046875,63.781734466552734
0.28955078125,0.9268798828125,-0.3443603515625,-20.812986373901367,31.799314498901367,61.035152435302734
0.2298583984375,0.93408203125,-0.3101806640625,-17.9443359375,28.808591842651367,57.861324310302734
0.237548828125,0.982177734375,-0.330810546875,-12.817381858825684,28.442380905151367,55.236812591552734
0.2257080078125,0.9327392578125,-0.3585205078125,-11.901854515075684,26.916501998901367,52.978511810302734
0.145751953125,0.9718017578125,-0.354248046875,-6.469726085662842,29.357908248901367,46.813961029052734
0.117919921875,0.9610595703125,-0.3636474609375,-7.629394054412842,26.184080123901367,47.912593841552734
0.069580078125,0.962158203125,-0.3265380859375,-7.141112804412842,27.709959030151367,43.884273529052734
0.0623779296875,0.973876953125,-0.3421630859375,-8.60595703125,29.479978561401367,38.14697265625
0.0318603515625,0.967041015625,-0.343017578125,-9.1552734375,29.968259811401367,34.423828125
0.0457763671875,0.937255859375,-0.3531494140625,-6.408690929412842,31.433103561401367,33.8134765625
-0.0028076171875,0.9486083984375,-0.3255615234375,-2.990722417831421,33.5693359375,31.860349655151367
-0.053466796875,0.932861328125,-0.31591796875,-0.3662109076976776,35.64453125,34.36279296875
-0.0506591796875,0.92236328125,-0.3687744140625,2.624511480331421,36.1328125,36.43798828125
-0.0655517578125,0.9451904296875,-0.375,-0.4272460639476776,34.423828125,37.90283203125
-0.104736328125,0.95166015625,-0.3485107421875,7.080077648162842,32.40966796875,41.809078216552734
-0.1387939453125,0.9215087890625,-0.3385009765625,-5.249022960662842,29.541013717651367,35.82763671875
-0.1414794921875,0.896484375,-0.368896484375,-4.94384765625,28.442380905151367,36.2548828125
-0.1700439453125,0.9173583984375,-0.3612060546875,-9.3994140625,25.817869186401367,33.935546875
-0.1927490234375,0.9501953125,-0.3646240234375,-11.596678733825684,23.132322311401367,31.127927780151367
-0.19140625,0.9453125,-0.4140625,-15.808104515075684,20.080564498901367,28.747556686401367
-0.2005615234375,0.9827880859375,-0.4261474609375,-18.00537109375,15.563963890075684,25.939939498901367
-0.2105712890625,0.974365234375,-0.4224853515625,-19.04296875,11.718749046325684,20.568845748901367
-0.2340087890625,0.983642578125,-0.40087890625,-17.76123046875,11.169432640075684,14.709471702575684
-0.26123046875,0.9573974609375,-0.4117431640625,-12.451170921325684,8.85009765625,9.58251953125
-0.2828369140625,0.9395751953125,-0.4156494140625,-4.69970703125,2.0751953125,1.4648436307907104
-0.2579345703125,0.9219970703125,-0.389404296875,0.8544921278953552,-3.845214605331421,-2.929687261581421
-0.255615234375,0.9012451171875,-0.392333984375,7.202147960662842,-7.629394054412842,-3.662109136581421
-0.251220703125,0.8682861328125,-0.3582763671875,2.25830078125,-8.1787109375,-1.03759765625
-0.284912109375,0.8994140625,-0.3729248046875,8.36181640625,-9.1552734375,2.0751953125
-0.20849609375,0.8876953125,-0.385009765625,8.6669921875,-10.925292015075684,9.1552734375
-0.2515869140625,0.8936767578125,-0.396240234375,5.798339366912842,-12.634276390075684,8.4228515625
-0.3043212890625,0.8687744140625,-0.42431640625,7.507323741912842,-13.122557640075684,7.934569835662842
-0.2379150390625,0.8582763671875,-0.4205322265625,2.563476324081421,-12.268065452575684,7.934569835662842
-0.234375,0.8779296875,-0.3917236328125,-1.2817381620407104,-10.620116233825684,2.44140625
-0.2445068359375,0.8538818359375,-0.3507080078125,-4.82177734375,-9.46044921875,-3.784179449081421
-0.229248046875,0.83349609375,-0.3397216796875,-1.220703125,-6.896972179412842,-5.920409679412842
-0.2808837890625,0.8819580078125,-0.3262939453125,2.50244140625,-2.685546636581421,-7.690429210662842
-0.2701416015625,0.9564208984375,-0.39501953125,10.864256858825684,-1.4038084745407104,-2.197265625
-0.186279296875,1.0035400390625,-0.4482421875,13.183592796325684,-7.446288585662842,0.4272460639476776
-0.190673828125,0.98486328125,-0.398193359375,9.58251953125,-13.122557640075684,-1.7089842557907104
-0.2286376953125,0.8984375,-0.344482421875,6.652831554412842,-14.282225608825684,-5.187987804412842
-0.2392578125,0.8389892578125,-0.3038330078125,10.437010765075684,-11.779784202575684,-7.446288585662842
-0.2413330078125,0.8447265625,-0.2642822265625,12.329100608825684,-8.23974609375,-7.019042491912842
-0.219482421875,0.8656005859375,-0.2762451171875,14.831542015075684,-5.676269054412842,-6.713866710662842
-0.1944580078125,0.869873046875,-0.3245849609375,11.230467796325684,-5.554198741912842,-5.737304210662842
-0.193359375,0.894287109375,-0.34423828125,3.906249761581421,-7.080077648162842,-3.845214605331421
-0.197265625,0.9041748046875,-0.33154296875,0.7934569716453552,-7.385253429412842,-0.8544921278953552
-0.2049560546875,0.8956298828125,-0.3563232421875,0.7324218153953552,-6.896972179412842,2.929687261581421
-0.2158203125,0.906494140625,-0.36181640625,2.868652105331421,-5.981444835662842,6.896972179412842
-0.2137451171875,0.91943359375,-0.3582763671875,2.50244140625,-4.5166015625,8.056640625
-0.2208251953125,0.9228515625,-0.3590087890625,2.13623046875,-2.868652105331421,6.408690929412842
-0.24169921875,0.9222412109375,-0.354248046875,2.197265625,-1.7089842557907104,2.746581792831421
-0.23828125,0.910888671875,-0.347900390625,1.4038084745407104,-1.5258787870407104,-2.13623046875
-0.224853515625,0.900634765625,-0.3297119140625,-0.1831054538488388,-3.112792730331421,-5.737304210662842
-0.2220458984375,0.8851318359375,-0.32470703125,-1.5258787870407104,-4.7607421875,-6.347655773162842
-0.22314453125,0.879638671875,-0.332763671875,0.0,-5.493163585662842,-4.0283203125
-0.2081298828125,0.88720703125,-0.3524169921875,1.220703125,-6.164550304412842,-0.0610351525247097
-0.1981201171875,0.8974609375,-0.3616943359375,0.30517578125,-7.263183116912842,3.784179449081421
-0.1995849609375,0.8997802734375,-0.3582763671875,-2.746581792831421,-7.812499523162842,6.164550304412842
-0.2225341796875,0.89453125,-0.3472900390625,-2.624511480331421,-6.652831554412842,7.141112804412842
-0.237548828125,0.901123046875,-0.34912109375,-2.197265625,-4.94384765625,7.385253429412842
-0.238525390625,0.9173583984375,-0.3580322265625,-1.7089842557907104,-4.0283203125,5.249022960662842
-0.23876953125,0.91796875,-0.376220703125,-0.8544921278953552,-3.662109136581421,1.4648436307907104
-0.2376708984375,0.9088134765625,-0.3759765625,-0.1220703050494194,-5.126952648162842,-1.7700194120407104
-0.21728515625,1.593505859375,-0.79150390625,-31.494138717651367,-54.138179779052734,-108.45946502685547
-0.3759765625,1.5789794921875,-0.7733154296875,-6.652831554412842,-81.54296112060547,-162.71971130371094
-0.3660888671875,1.4566650390625,-0.8310546875,15.808104515075684,-110.71776580810547,-210.14402770996094
-0.14453125,1.4735107421875,-0.805908203125,44.433589935302734,-143.73779296875,-247.19236755371094
0.0858154296875,1.4969482421875,-0.7972412109375,94.11620330810547,-183.71580505371094,-266.41845703125
0.2769775390625,1.2574462890625,-0.7362060546875,109.25292205810547,-199.95115661621094,-280.1513671875
0.075927734375,0.71728515625,-0.1483154296875,71.10595703125,-191.28416442871094,-298.2177734375
-0.0511474609375,0.265625,-0.0789794921875,74.89013671875,-178.40574645996094,-298.9501953125
-0.0008544921875,-0.021728515625,0.0435791015625,89.90477752685547,-161.01072692871094,-260.68115234375
-0.0076904296875,0.01416015625,0.123291015625,70.37353515625,-148.37646484375,-243.89646911621094
0.0933837890625,-0.0123291015625,0.276123046875,46.386714935302734,-124.38964080810547,-208.92332458496094
0.19384765625,-0.013671875,0.3143310546875,5.493163585662842,-96.13036346435547,-168.88426208496094
0.4439697265625,-0.010986328125,0.2242431640625,13.183592796325684,-68.42041015625,-131.2255859375
0.649658203125,-0.06298828125,0.2308349609375,11.047362327575684,-55.664058685302734,-107.72704315185547
0.7550048828125,0.0179443359375,0.5145263671875,-19.4091796875,-46.630855560302734,-84.59471893310547
0.813720703125,-0.0540771484375,0.558349609375,-2.25830078125,-32.8369140625,-57.922359466552734
0.9315185546875,-0.1419677734375,0.520263671875,-3.662109136581421,-30.883787155151367,-41.503902435302734
0.9398193359375,-0.0765380859375,0.5614013671875,-15.380858421325684,-18.9208984375,-28.564451217651367
0.9644775390625,-0.1148681640625,0.479736328125,-10.314940452575684,-15.930174827575684,-27.954099655151367
0.9031982421875,-0.091552734375,0.549560546875,-13.610838890075684,-10.864256858825684,-17.63916015625
0.904541015625,-0.083251953125,0.4808349609375,-11.413573265075684,-3.295898199081421,-10.314940452575684
0.9190673828125,-0.0684814453125,0.445556640625,-3.356933355331421,-2.44140625,-3.845214605331421
0.9034423828125,-0.0201416015625,0.478759765625,-8.36181640625,1.15966796875,-0.9765624403953552
0.8856201171875,-0.04638671875,0.4425048828125,-7.202147960662842,3.479003667831421,1.5258787870407104
0.9046630859375,-0.0335693359375,0.423828125,-2.25830078125,4.94384765625,6.225585460662842
0.9029541015625,-0.00537109375,0.426025390625,-1.7089842557907104,5.737304210662842,8.30078125
0.9263916015625,0.00634765625,0.40625,-4.8828125,5.737304210662842,8.1787109375
0.9141845703125,0.0196533203125,0.4200439453125,-4.39453125,4.57763671875,6.408690929412842
0.900634765625,0.0103759765625,0.419921875,-1.3427733182907104,5.798339366912842,10.009765625
0.9036865234375,0.0205078125,0.4256591796875,-6.103515148162842,6.774901866912842,12.939452171325684
0.876220703125,0.0179443359375,0.4222412109375,-1.2817381620407104,10.070799827575684,17.88330078125
0.9417724609375,0.000732421875,0.412109375,-0.4882812201976776,12.878417015075684,29.846189498901367
0.9302978515625,0.0140380859375,0.469970703125,-0.54931640625,19.53125,33.63037109375
0.8294677734375,-0.0260009765625,0.434326171875,12.451170921325684,29.113767623901367,33.8134765625
0.8585205078125,-0.0369873046875,0.3648681640625,22.583005905151367,32.89794921875,53.771968841552734
0.85205078125,0.0491943359375,0.394775390625,12.634276390075684,35.7666015625,64.0869140625
0.802490234375,0.102294921875,0.383544921875,10.253905296325684,39.97802734375,66.95556640625
0.7969970703125,0.1053466796875,0.356689453125,5.126952648162842,48.522945404052734,80.01708984375
0.8076171875,0.131103515625,0.3062744140625,-8.36181640625,53.588863372802734,88.19579315185547
0.7015380859375,0.156494140625,0.268310546875,-9.033203125,57.373043060302734,96.43553924560547
0.70654296875,0.2235107421875,0.2462158203125,-7.324218273162842,57.983394622802734,108.82567596435547
0.748291015625,0.3541259765625,0.182861328125,-21.728513717651367,57.434078216552734,111.81639862060547
0.8402099609375,0.3863525390625,0.081298828125,-15.441893577575684,58.593746185302734,112.79296112060547
0.745849609375,0.42724609375,0.0638427734375,-10.681151390075684,55.236812591552734,113.09813690185547
0.7796630859375,0.568359375,0.123291015625,-17.822265625,59.936519622802734,112.06053924560547
0.7506103515625,0.6282958984375,0.0780029296875,-22.827146530151367,62.927242279052734,106.68944549560547
0.7578125,0.620361328125,-0.0211181640625,-18.24951171875,62.927242279052734,107.97118377685547
0.694091796875,0.6473388671875,-0.022216796875,-17.9443359375,63.842769622802734,105.46874237060547
0.58349609375,0.764404296875,-0.0059814453125,-15.075682640075684,66.95556640625,104.00389862060547
0.5892333984375,0.8017578125,-0.076416015625,-9.46044921875,66.7724609375,102.53905487060547
0.56298828125,0.7857666015625,-0.157958984375,-4.150390625,65.4296875,101.07421112060547
0.5098876953125,0.8798828125,-0.15673828125,-1.9531248807907104,64.14794921875,95.70311737060547
0.4566650390625,0.890380859375,-0.1754150390625,1.5869139432907104,62.805171966552734,93.38378143310547
0.4085693359375,0.9049072265625,-0.182861328125,0.6103515625,62.866207122802734,90.51512908935547
0.269287109375,0.9599609375,-0.2403564453125,-16.66259765625,56.579586029052734,82.76366424560547
0.251953125,0.9556884765625,-0.2691650390625,-22.399900436401367,53.100582122802734,81.42089080810547
0.225341796875,1.0054931640625,-0.2862548828125,-25.268552780151367,47.546382904052734,76.96533203125
0.1640625,1.03564453125,-0.254150390625,-33.50830078125,43.884273529052734,71.044921875
0.1226806640625,1.00634765625,-0.314208984375,-35.0341796875,40.344234466552734,65.185546875
0.079345703125,0.9970703125,-0.3316650390625,-34.7900390625,36.0107421875,58.776851654052734
0.02783203125,1.0098876953125,-0.2952880859375,-22.644041061401367,34.1796875,51.879878997802734
0.002685546875,0.99560546875,-0.318603515625,-14.709471702575684,32.2265625,51.879878997802734
0.034912109375,0.968994140625,-0.3714599609375,-20.202634811401367,30.822751998901367,40.649410247802734
-0.016357421875,0.9912109375,-0.3604736328125,-7.446288585662842,28.991697311401367,37.29248046875
-0.033203125,0.9498291015625,-0.34423828125,-8.72802734375,24.841306686401367,39.0625
-0.048583984375,0.908935546875,-0.365234375,-4.33349609375,22.644041061401367,38.9404296875
-0.041015625,0.9105224609375,-0.3826904296875,-2.44140625,16.41845703125,44.311519622802734
-0.0428466796875,0.9833984375,-0.366943359375,-10.375975608825684,12.084959983825684,49.255367279052734
-0.084716796875,0.9794921875,-0.4224853515625,-18.49365234375,10.070799827575684,47.363277435302734
-0.1282958984375,0.926513671875,-0.471923828125,-14.831542015075684,8.6669921875,45.471187591552734
-0.186279296875,0.951171875,-0.402099609375,-16.05224609375,6.835937023162842,42.724605560302734
-0.2039794921875,0.9461669921875,-0.375732421875,-19.71435546875,9.1552734375,29.907224655151367
-0.2318115234375,0.9031982421875,-0.388671875,-15.136717796325684,10.620116233825684,23.254392623901367
-0.2266845703125,0.9229736328125,-0.392333984375,-9.58251953125,9.3994140625,19.59228515625
-0.2218017578125,0.9315185546875,-0.3857421875,-3.295898199081421,9.82666015625,15.563963890075684
-0.231689453125,0.925048828125,-0.3907470703125,-0.1220703050494194,10.009765625,15.441893577575684
-0.2205810546875,0.92041015625,-0.391845703125,6.103515148162842,10.009765625,14.831542015075684
-0.2515869140625,0.9033203125,-0.380859375,6.408690929412842,10.253905296325684,13.977049827575684
-0.2554931640625,0.899658203125,-0.36572265625,7.080077648162842,11.901854515075684,13.854979515075684
-0.2489013671875,0.90283203125,-0.3807373046875,4.94384765625,12.817381858825684,12.268065452575684
-0.269775390625,0.8983154296875,-0.3880615234375,0.0,11.657713890075684,8.11767578125
-0.2578125,0.9189453125,-0.386474609375,-0.6103515625,10.314940452575684,4.39453125
-0.254638671875,0.919677734375,-0.3817138671875,-4.39453125,8.4228515625,1.6479490995407104
-0.2620849609375,0.91796875,-0.3848876953125,-6.347655773162842,6.408690929412842,-0.7324218153953552
-0.248291015625,0.92529296875,-0.3756103515625,-6.286620616912842,4.94384765625,-2.807616949081421
-0.2637939453125,0.9278564453125,-0.3663330078125,-4.08935546875,4.82177734375,-5.371093273162842
-0.2559814453125,0.8953857421875,-0.3829345703125,-2.807616949081421,5.493163585662842,-5.310058116912842
-0.24072265625,0.88134765625,-0.39599609375,-4.0283203125,6.042479991912842,-4.8828125
-0.2459716796875,0.8839111328125,-0.3740234375,-3.417968511581421,8.544921875,-5.187987804412842
-0.2298583984375,0.8880615234375,-0.352783203125,-5.615233898162842,11.962889671325684,-3.051757574081421
-0.245849609375,0.849609375,-0.3682861328125,-7.934569835662842,13.305663108825684,0.9155272841453552
-0.268310546875,0.8658447265625,-0.3653564453125,-2.929687261581421,10.314940452575684,5.981444835662842
-0.24560546875,0.8892822265625,-0.34375,-2.990722417831421,8.85009765625,10.620116233825684
-0.24072265625,0.8740234375,-0.376708984375,-5.310058116912842,7.690429210662842,12.329100608825684
-0.2747802734375,0.8740234375,-0.384033203125,-5.981444835662842,6.103515148162842,11.657713890075684
-0.2840576171875,0.8873291015625,-0.380859375,-3.295898199081421,5.615233898162842,10.742186546325684
-0.29931640625,0.850341796875,-0.422119140625,-7.202147960662842,3.601073980331421,9.033203125
-0.318603515625,0.8677978515625,-0.414794921875,-3.967284917831421,1.5869139432907104,6.774901866912842
-0.33203125,0.8720703125,-0.3896484375,-3.784179449081421,1.220703125,4.39453125
-0.3245849609375,0.8377685546875,-0.4091796875,-1.4648436307907104,0.3662109076976776,4.0283203125
-0.3338623046875,0.8436279296875,-0.401123046875,-0.0610351525247097,0.0,2.13623046875
-0.3492431640625,0.8475341796875,-0.4085693359375,3.479003667831421,-0.2441406100988388,1.0986328125
-0.326904296875,0.86572265625,-0.41064453125,4.0283203125,-0.3662109076976776,1.220703125
-0.317138671875,0.85693359375,-0.403564453125,2.197265625,-1.4038084745407104,-0.1220703050494194
-0.33349609375,0.859130859375,-0.3841552734375,2.868652105331421,-1.7700194120407104,-2.44140625
-0.333740234375,0.8507080078125,-0.38037109375,4.08935546875,-1.7089842557907104,-2.624511480331421
-0.33544921875,0.8538818359375,-0.389892578125,7.141112804412842,-1.6479490995407104,-3.356933355331421
-0.3328857421875,0.845458984375,-0.40283203125,6.164550304412842,-2.807616949081421,-4.21142578125
-0.3280029296875,0.865966796875,-0.4114990234375,6.530761241912842,-3.906249761581421,-4.69970703125
-0.31640625,0.8785400390625,-0.4088134765625,8.36181640625,-4.638671875,-5.0048828125
-0.2994384765625,0.8809814453125,-0.3975830078125,7.690429210662842,-4.8828125,-6.713866710662842
-0.2989501953125,0.8680419921875,-0.391845703125,7.873534679412842,-5.187987804412842,-8.30078125
-0.3079833984375,0.8865966796875,-0.3699951171875,9.8876953125,-4.94384765625,-7.751464366912842
-0.285400390625,0.8887939453125,-0.3765869140625,10.559081077575684,-4.82177734375,-7.324218273162842
-0.2723388671875,0.8782958984375,-0.3790283203125,8.36181640625,-5.249022960662842,-8.23974609375
-0.27294921875,0.88232421875,-0.37451171875,9.09423828125,-6.103515148162842,-7.202147960662842
-0.26904296875,0.8818359375,-0.3583984375,9.21630859375,-6.530761241912842,-6.774901866912842
-0.2845458984375,1.6414794921875,-0.7139892578125,-58.410640716552734,-67.138671875,-121.82616424560547
-0.3970947265625,1.500244140625,-0.7061767578125,-36.31591796875,-90.51512908935547,-167.66355895996094
-0.342529296875,1.3426513671875,-0.7225341796875,-4.150390625,-111.69432830810547,-210.08299255371094
-0.1268310546875,1.3189697265625,-0.7408447265625,47.790523529052734,-132.4462890625,-236.87742614746094
0.201904296875,1.3634033203125,-0.9571533203125,105.95702362060547,-163.45213317871094,-241.76023864746094
0.306396484375,1.1787109375,-0.761962890625,95.45897674560547,-169.67771911621094,-256.34765625
0.10693359375,0.717529296875,-0.2291259765625,70.556640625,-168.57908630371094,-275.57373046875
0.0660400390625,0.427978515625,-0.1357421875,63.842769622802734,-153.01513671875,-282.65380859375
0.164794921875,-0.0169677734375,-0.0074462890625,74.70703125,-125.54930877685547,-220.21482849121094
0.177734375,0.1800537109375,0.17578125,34.60693359375,-108.09325408935547,-201.29393005371094
0.3720703125,0.1435546875,0.1009521484375,16.90673828125,-96.67967987060547,-170.65428161621094
0.440673828125,0.0196533203125,0.123046875,9.1552734375,-82.51952362060547,-141.7236328125
0.530517578125,-0.0628662109375,0.239990234375,-4.638671875,-62.927242279052734,-108.15428924560547
0.73779296875,-0.00927734375,0.2662353515625,1.9531248807907104,-50.842281341552734,-78.2470703125
0.873046875,0.005126953125,0.4373779296875,-4.45556640625,-47.973628997802734,-55.358882904052734
0.859130859375,-0.0194091796875,0.45751953125,-8.48388671875,-31.005857467651367,-39.4287109375
0.9354248046875,-0.1375732421875,0.436767578125,-12.145995140075684,-24.414060592651367,-21.850584030151367
0.9603271484375,-0.0631103515625,0.46142578125,-8.1787109375,-16.357421875,-11.901854515075684
0.9788818359375,-0.069091796875,0.40380859375,0.1220703050494194,-11.169432640075684,-5.310058116912842
0.962158203125,-0.017578125,0.4442138671875,-8.4228515625,-7.019042491912842,0.7324218153953552
0.9176025390625,-0.013427734375,0.4088134765625,-9.1552734375,0.1220703050494194,3.906249761581421
0.9395751953125,-0.0135498046875,0.3724365234375,-5.432128429412842,2.197265625,7.324218273162842
0.92041015625,0.0572509765625,0.4013671875,-2.3193359375,3.662109136581421,15.319823265075684
0.90966796875,0.0718994140625,0.34326171875,2.624511480331421,5.981444835662842,15.869139671325684
0.9281005859375,0.057373046875,0.3482666015625,1.03759765625,4.8828125,16.17431640625
0.92236328125,0.10791015625,0.38232421875,0.9155272841453552,7.080077648162842,21.240232467651367
0.9075927734375,0.091552734375,0.353515625,3.723144292831421,11.169432640075684,22.521970748901367
0.8968505859375,0.070556640625,0.3448486328125,1.03759765625,13.427733421325684,26.916501998901367
0.8092041015625,0.0927734375,0.396240234375,-2.685546636581421,21.911619186401367,39.306640625
0.77685546875,0.091796875,0.328857421875,11.352538108825684,33.75244140625,50.720211029052734
0.882568359375,0.0958251953125,0.200927734375,22.705076217651367,33.99658203125,60.729976654052734
0.8375244140625,0.1339111328125,0.2669677734375,17.9443359375,35.400390625,69.88525390625
0.8092041015625,0.2423095703125,0.3233642578125,7.263183116912842,43.212886810302734,74.76806640625
0.87890625,0.2320556640625,0.2479248046875,5.737304210662842,46.569820404052734,78.9794921875
0.8455810546875,0.1959228515625,0.2354736328125,-2.0751953125,44.860836029052734,87.95165252685547
0.8519287109375,0.3189697265625,0.2374267578125,-12.756346702575684,46.020503997802734,91.43065643310547
0.823486328125,0.3665771484375,0.2476806640625,-22.338865280151367,51.086421966552734,93.26171112060547
0.8052978515625,0.377685546875,0.1685791015625,-28.991697311401367,49.377437591552734,95.94725799560547
0.782958984375,0.4683837890625,0.0985107421875,-39.24560546875,49.499507904052734,96.37450408935547
0.7574462890625,0.5611572265625,0.0987548828125,-26.977537155151367,54.687496185302734,93.13964080810547
0.774169921875,0.634521484375,0.015625,-15.258788108825684,52.429195404052734,93.07860565185547
0.7022705078125,0.6383056640625,-0.000244140625,-18.37158203125,55.358882904052734,91.24755096435547
0.661376953125,0.673095703125,-0.07080078125,-5.310058116912842,61.035152435302734,89.53856658935547
0.70556640625,0.7186279296875,-0.09326171875,-9.6435546875,61.035152435302734,87.03612518310547
0.614990234375,0.8016357421875,-0.1611328125,-33.26416015625,65.12451171875,79.04052734375
0.5367431640625,0.7838134765625,-0.1729736328125,-40.527339935302734,65.24658203125,77.81982421875
0.451904296875,0.8248291015625,-0.21044921875,-34.7900390625,66.95556640625,77.57568359375
0.4285888671875,0.85107421875,-0.26708984375,-31.005857467651367,64.0869140625,76.96533203125
0.3924560546875,0.8887939453125,-0.3179931640625,-27.404783248901367,62.072750091552734,75.3173828125
0.376953125,0.89208984375,-0.3668212890625,-23.620603561401367,59.936519622802734,72.20458984375
0.3026123046875,0.8956298828125,-0.3634033203125,-15.441893577575684,57.983394622802734,69.51904296875
0.26220703125,0.9317626953125,-0.3973388671875,-6.591796398162842,56.274410247802734,67.2607421875
0.23974609375,0.932861328125,-0.413330078125,-8.7890625,53.405757904052734,63.964839935302734
0.1973876953125,0.9100341796875,-0.41455078125,-7.080077648162842,52.185054779052734,60.607906341552734
0.164794921875,0.947998046875,-0.4337158203125,-6.347655773162842,49.926753997802734,57.617183685302734
0.1478271484375,0.95556640625,-0.436767578125,-17.27294921875,46.386714935302734,52.062984466552734
0.0908203125,0.9761962890625,-0.4361572265625,-15.991209983825684,44.799800872802734,47.180171966552734
0.0157470703125,0.9208984375,-0.442138671875,-18.61572265625,43.579097747802734,37.04833984375
-0.0008544921875,0.902587890625,-0.4447021484375,-15.502928733825684,42.358394622802734,36.31591796875
-0.0535888671875,0.8975830078125,-0.432861328125,-12.207030296325684,38.87939453125,38.2080078125
-0.06005859375,0.8780517578125,-0.4246826171875,-6.713866710662842,37.53662109375,39.85595703125
-0.1094970703125,0.832275390625,-0.431396484375,8.544921875,36.43798828125,48.217769622802734
-0.1470947265625,0.852294921875,-0.44384765625,0.30517578125,33.75244140625,47.119136810302734
-0.1414794921875,0.90380859375,-0.4769287109375,0.9765624403953552,31.433103561401367,46.691890716552734
-0.1947021484375,0.924072265625,-0.5185546875,-2.746581792831421,21.850584030151367,41.748043060302734
-0.2340087890625,0.962158203125,-0.50439453125,-0.1220703050494194,19.287109375,34.423828125
-0.240478515625,0.9483642578125,-0.5482177734375,-1.5869139432907104,12.145995140075684,26.855466842651367
-0.2393798828125,0.9661865234375,-0.53857421875,3.784179449081421,6.469726085662842,17.15087890625
-0.2633056640625,0.953369140625,-0.4757080078125,3.295898199081421,2.50244140625,8.6669921875
-0.2547607421875,0.9140625,-0.4857177734375,8.85009765625,-1.220703125,3.906249761581421
-0.266357421875,0.90576171875,-0.451416015625,14.648436546325684,-7.019042491912842,1.4038084745407104
-0.2757568359375,0.919677734375,-0.3955078125,15.624999046325684,-10.681151390075684,-2.0751953125
-0.2628173828125,0.8515625,-0.3817138671875,12.451170921325684,-13.610838890075684,-0.6103515625
-0.2392578125,0.8336181640625,-0.4268798828125,10.375975608825684,-15.686034202575684,0.7934569716453552
-0.28515625,0.8367919921875,-0.37744140625,10.986327171325684,-16.845703125,3.784179449081421
-0.2548828125,0.83837890625,-0.37353515625,10.375975608825684,-18.1884765625,7.934569835662842
-0.2470703125,0.8033447265625,-0.38916015625,4.150390625,-19.71435546875,13.488768577575684
-0.2646484375,0.8521728515625,-0.3511962890625,2.624511480331421,-19.53125,19.83642578125
-0.2689208984375,0.882080078125,-0.34814453125,-3.173827886581421,-18.00537109375,19.95849609375
-0.2476806640625,0.87744140625,-0.40283203125,-9.09423828125,-15.075682640075684,15.441893577575684
-0.271240234375,0.8956298828125,-0.4427490234375,-7.690429210662842,-13.549803733825684,11.352538108825684
-0.2630615234375,0.9635009765625,-0.4139404296875,-4.638671875,-11.413573265075684,4.21142578125
-0.2310791015625,0.9927978515625,-0.3885498046875,-0.4882812201976776,-6.774901866912842,-6.713866710662842
-0.2529296875,0.898681640625,-0.431396484375,2.50244140625,-2.868652105331421,-14.648436546325684
-0.2618408203125,0.8642578125,-0.460205078125,-2.563476324081421,-5.249022960662842,-14.282225608825684
-0.21533203125,0.8262939453125,-0.482666015625,-6.713866710662842,-11.047362327575684,-10.192870140075684
-0.212890625,0.808349609375,-0.4453125,-5.554198741912842,-15.258788108825684,-4.82177734375
-0.23828125,0.813232421875,-0.36669921875,-0.7934569716453552,-13.916014671325684,1.3427733182907104
-0.219482421875,0.832763671875,-0.3978271484375,9.82666015625,-8.6669921875,3.662109136581421
-0.2164306640625,0.899169921875,-0.4415283203125,19.34814453125,-4.69970703125,1.220703125
-0.233642578125,0.9141845703125,-0.45751953125,15.197752952575684,-3.662109136581421,-3.051757574081421
-0.2283935546875,0.910400390625,-0.451171875,6.286620616912842,-4.0283203125,-5.187987804412842
-0.224853515625,0.878662109375,-0.403076171875,3.540038824081421,-2.990722417831421,-6.103515148162842
-0.21630859375,0.87255859375,-0.3985595703125,5.737304210662842,-0.6103515625,-5.371093273162842
-0.2144775390625,0.87646484375,-0.420166015625,5.065917491912842,-0.6103515625,-4.33349609375
-0.197265625,0.8765869140625,-0.4320068359375,6.347655773162842,-3.417968511581421,-3.906249761581421
-0.18212890625,0.8594970703125,-0.3968505859375,5.065917491912842,-5.371093273162842,-3.784179449081421
-0.189453125,0.8538818359375,-0.3701171875,6.103515148162842,-5.615233898162842,-3.479003667831421
-0.19580078125,0.86328125,-0.3897705078125,11.047362327575684,-5.126952648162842,-0.0610351525247097
-0.1849365234375,0.8955078125,-0.406005859375,7.019042491912842,-5.798339366912842,2.807616949081421
-0.2021484375,0.9173583984375,-0.398193359375,3.845214605331421,-6.225585460662842,2.13623046875
-0.2115478515625,0.9266357421875,-0.4110107421875,3.540038824081421,-6.225585460662842,1.03759765625
-0.1944580078125,0.9122314453125,-0.41357421875,4.33349609375,-6.530761241912842,0.9155272841453552
-0.1951904296875,0.88720703125,-0.391357421875,1.7700194120407104,-6.042479991912842,1.03759765625
-0.198974609375,0.865478515625,-0.37255859375,2.13623046875,-3.784179449081421,1.8310545682907104
-0.2010498046875,0.869384765625,-0.3707275390625,5.920409679412842,-1.5258787870407104,4.69970703125
-0.2064208984375,0.876953125,-0.3729248046875,5.981444835662842,-0.1220703050494194,5.981444835662842
-0.2047119140625,0.8798828125,-0.3792724609375,2.746581792831421,-0.1831054538488388,5.615233898162842
-0.2171630859375,0.8907470703125,-0.3638916015625,2.197265625,0.0610351525247097,4.08935546875
-0.2196044921875,0.901123046875,-0.359619140625,0.6713866591453552,0.0,4.0283203125
-0.2322998046875,0.907958984375,-0.36474609375,-1.0986328125,0.1831054538488388,3.845214605331421
-0.2333984375,0.8909912109375,-0.388916015625,-5.310058116912842,0.30517578125,3.662109136581421
-0.236083984375,0.8834228515625,-0.405029296875,-4.0283203125,-0.1220703050494194,4.94384765625
-0.24853515625,1.5401611328125,-0.7608642578125,-0.2441406100988388,-59.631343841552734,-122.07030487060547
-0.27099609375,1.43408203125,-0.77099609375,13.305663108825684,-79.1015625,-166.19871520996094
-0.175537109375,1.3994140625,-0.7899169921875,20.263669967651367,-103.27147674560547,-208.25193786621094
0.0125732421875,1.41845703125,-0.8326416015625,33.38623046875,-132.4462890625,-240.23435974121094
0.2027587890625,1.402587890625,-0.76708984375,69.3359375,-166.87010192871094,-258.60595703125
0.2861328125,1.08154296875,-0.58837890625,97.71727752685547,-187.31687927246094,-262.02392578125
0.0880126953125,0.594970703125,-0.1793212890625,88.74510955810547,-182.55613708496094,-277.83203125
-0.02392578125,0.3143310546875,-0.0299072265625,86.18163299560547,-170.10496520996094,-278.076171875
-0.0557861328125,0.1455078125,-0.0631103515625,109.61913299560547,-153.80859375,-247.68064880371094
0.045166015625,-0.0472412109375,0.0694580078125,77.69775390625,-137.39013671875,-226.07420349121094
0.1990966796875,0.0889892578125,0.20556640625,50.231929779052734,-116.39403533935547,-198.05906677246094
0.2733154296875,0.043701171875,0.2930908203125,14.160155296325684,-84.96092987060547,-170.53221130371094
0.515380859375,-0.1060791015625,0.2347412109375,5.737304210662842,-58.349605560302734,-138.61083984375
0.6966552734375,-0.05615234375,0.27587890625,0.8544921278953552,-49.621578216552734,-115.11229705810547
0.8082275390625,0.002685546875,0.385498046875,5.310058116912842,-47.363277435302734,-84.04540252685547
0.7646484375,-0.005126953125,0.5814208984375,-7.019042491912842,-34.7900390625,-69.3359375
0.8304443359375,-0.1375732421875,0.51953125,-6.835937023162842,-22.583005905151367,-43.945308685302734
0.8809814453125,-0.1468505859375,0.437744140625,-8.4228515625,-18.37158203125,-23.620603561401367
0.9461669921875,-0.112060546875,0.462646484375,-9.765625,-14.587401390075684,-10.986327171325684
0.9669189453125,-0.0738525390625,0.5406494140625,-26.672361373901367,-7.385253429412842,-8.48388671875
0.9251708984375,-0.1082763671875,0.480712890625,-24.353025436401367,-0.0610351525247097,-4.7607421875
0.9539794921875,-0.0704345703125,0.443359375,-8.9111328125,-0.4272460639476776,7.629394054412842
0.919189453125,0.013427734375,0.44970703125,-11.413573265075684,3.173827886581421,9.94873046875
0.92919921875,-0.018798828125,0.365966796875,-13.183592796325684,6.286620616912842,10.131834983825684
0.9383544921875,-0.001708984375,0.3924560546875,-15.380858421325684,7.385253429412842,15.502928733825684
0.914306640625,0.0225830078125,0.4052734375,-9.1552734375,12.939452171325684,20.263669967651367
0.909423828125,0.019287109375,0.3883056640625,0.0610351525247097,16.845703125,26.000974655151367
0.9176025390625,0.031005859375,0.4033203125,-1.9531248807907104,19.83642578125,33.63037109375
0.8597412109375,0.0657958984375,0.390869140625,2.13623046875,27.343748092651367,37.78076171875
0.87744140625,0.048828125,0.3446044921875,12.084959983825684,33.447265625,50.964351654052734
0.8638916015625,0.08056640625,0.3499755859375,18.73779296875,35.46142578125,62.072750091552734
0.8524169921875,0.108154296875,0.3377685546875,22.155759811401367,40.222164154052734,66.2841796875
0.8609619140625,0.0836181640625,0.288330078125,19.22607421875,44.250484466552734,73.30322265625
0.8245849609375,0.0860595703125,0.3118896484375,11.596678733825684,50.659175872802734,85.44921112060547
0.7779541015625,0.189697265625,0.2913818359375,8.23974609375,58.715816497802734,95.21483612060547
0.8070068359375,0.2427978515625,0.22021484375,4.21142578125,63.293453216552734,104.79735565185547
0.8148193359375,0.303955078125,0.1807861328125,-9.033203125,66.46728515625,109.80223846435547
0.7799072265625,0.418701171875,0.1312255859375,-19.22607421875,68.05419921875,111.63329315185547
0.74072265625,0.462890625,0.087890625,-21.240232467651367,74.15771484375,111.87743377685547
0.7210693359375,0.4930419921875,0.0107421875,-24.108884811401367,71.8994140625,113.83055877685547
0.6943359375,0.6048583984375,-0.02734375,-20.812986373901367,71.71630859375,111.45018768310547
0.735107421875,0.6817626953125,-0.0765380859375,-28.076169967651367,70.068359375,106.75048065185547
0.6236572265625,0.667724609375,-0.111572265625,-25.634763717651367,69.88525390625,102.72216033935547
0.570068359375,0.73876953125,-0.1763916015625,-14.831542015075684,66.58935546875,102.72216033935547
0.6055908203125,0.771240234375,-0.171630859375,-24.902341842651367,61.645503997802734,97.04589080810547
0.5045166015625,0.831787109375,-0.222900390625,-4.2724609375,60.302730560302734,94.54344940185547
0.5321044921875,0.860595703125,-0.2763671875,-3.967284917831421,53.649898529052734,93.26171112060547
0.3267822265625,0.9005126953125,-0.2982177734375,-5.432128429412842,37.04833984375,72.021484375
0.281005859375,1.013427734375,-0.294921875,-5.371093273162842,27.648923873901367,57.373043060302734
0.24169921875,0.9476318359375,-0.3565673828125,-2.929687261581421,23.620603561401367,54.687496185302734
0.23828125,0.896240234375,-0.371826171875,-4.150390625,20.080564498901367,54.016109466552734
0.203125,0.9803466796875,-0.2916259765625,-3.662109136581421,16.78466796875,48.156734466552734
0.1712646484375,0.986572265625,-0.2869873046875,-0.4882812201976776,15.686034202575684,45.532222747802734
0.1484375,0.940673828125,-0.2977294921875,-4.33349609375,13.977049827575684,43.457027435302734
0.0933837890625,0.9444580078125,-0.2779541015625,-5.371093273162842,12.512206077575684,41.137691497802734
0.0653076171875,0.937744140625,-0.2816162109375,-0.9765624403953552,12.390135765075684,41.076656341552734
0.0892333984375,0.945068359375,-0.298095703125,-4.638671875,11.352538108825684,39.794921875
0.0816650390625,0.978759765625,-0.3260498046875,-9.8876953125,9.765625,36.4990234375
0.06396484375,0.9798583984375,-0.3018798828125,-12.390135765075684,8.4228515625,35.7666015625
0.051513671875,0.9617919921875,-0.29345703125,-15.014647483825684,8.60595703125,37.4755859375
0.0018310546875,0.9407958984375,-0.2823486328125,-14.770506858825684,10.559081077575684,37.7197265625
0.014892578125,0.952392578125,-0.290771484375,-17.15087890625,15.319823265075684,33.63037109375
0.0140380859375,0.948486328125,-0.3258056640625,-12.573241233825684,18.49365234375,33.75244140625
-0.0216064453125,0.94091796875,-0.343017578125,-9.58251953125,21.057126998901367,32.89794921875
-0.045166015625,0.96240234375,-0.3218994140625,-7.446288585662842,22.277830123901367,33.5693359375
-0.0433349609375,0.9649658203125,-0.357177734375,-7.080077648162842,22.277830123901367,35.0341796875
-0.0692138671875,0.9124755859375,-0.391845703125,-6.958007335662842,19.34814453125,38.0859375
-0.1199951171875,0.947509765625,-0.33544921875,-5.493163585662842,19.53125,34.423828125
-0.14990234375,0.9332275390625,-0.31884765625,1.5258787870407104,21.911619186401367,37.41455078125
-0.1455078125,0.8873291015625,-0.3834228515625,-12.084959983825684,20.690916061401367,33.69140625
-0.1904296875,0.948486328125,-0.3729248046875,-14.160155296325684,19.287109375,30.578611373901367
-0.2242431640625,0.980224609375,-0.3546142578125,-13.000487327575684,18.1884765625,28.137205123901367
-0.2181396484375,0.9752197265625,-0.3939208984375,-15.930174827575684,14.831542015075684,26.916501998901367
-0.2222900390625,0.982177734375,-0.43701171875,-15.197752952575684,9.6435546875,23.254392623901367
-0.242919921875,0.9732666015625,-0.4429931640625,-10.437010765075684,3.356933355331421,14.892577171325684
-0.2625732421875,1.014404296875,-0.4212646484375,0.7324218153953552,-2.197265625,2.929687261581421
-0.21044921875,0.91259765625,-0.3902587890625,10.864256858825684,-6.103515148162842,-18.4326171875
-0.183349609375,0.8465576171875,-0.3642578125,9.58251953125,-6.164550304412842,-17.02880859375
-0.161865234375,0.8221435546875,-0.3646240234375,4.33349609375,-6.042479991912842,-12.023924827575684
-0.186279296875,0.8023681640625,-0.34912109375,-0.9765624403953552,-6.774901866912842,-4.08935546875
-0.2061767578125,0.8760986328125,-0.2978515625,5.920409679412842,-3.295898199081421,1.9531248807907104
-0.21826171875,0.9744873046875,-0.2991943359375,19.10400390625,1.9531248807907104,3.112792730331421
-0.1953125,1.0772705078125,-0.356201171875,27.099607467651367,3.723144292831421,-3.723144292831421
-0.16650390625,1.01171875,-0.3802490234375,13.793944358825684,1.03759765625,-11.901854515075684
-0.171142578125,0.880859375,-0.3363037109375,-0.30517578125,-1.9531248807907104,-15.197752952575684
-0.18017578125,0.80517578125,-0.29345703125,-0.9155272841453552,-1.9531248807907104,-9.82666015625
-0.1580810546875,0.833251953125,-0.29345703125,-2.3193359375,-1.6479490995407104,-1.5258787870407104
-0.1585693359375,0.902587890625,-0.2974853515625,0.4882812201976776,-1.8310545682907104,2.50244140625
-0.166259765625,0.9686279296875,-0.3077392578125,11.352538108825684,-2.746581792831421,4.0283203125
-0.17529296875,0.9552001953125,-0.327392578125,12.695311546325684,-4.45556640625,3.417968511581421
-0.181396484375,0.9248046875,-0.33154296875,5.065917491912842,-6.530761241912842,3.295898199081421
-0.202392578125,0.9044189453125,-0.3212890625,-0.8544921278953552,-6.469726085662842,3.723144292831421
-0.199462890625,0.9088134765625,-0.3157958984375,-0.6713866591453552,-3.662109136581421,4.150390625
-0.187744140625,0.9161376953125,-0.336669921875,0.3662109076976776,-1.2817381620407104,3.601073980331421
-0.202392578125,0.9222412109375,-0.34619140625,2.685546636581421,-0.6103515625,2.38037109375
-0.2020263671875,0.9053955078125,-0.3544921875,3.112792730331421,-1.7089842557907104,1.5869139432907104
-0.2073974609375,0.900146484375,-0.3284912109375,3.479003667831421,-2.868652105331421,1.2817381620407104
-0.2119140625,0.9166259765625,-0.3123779296875,5.065917491912842,-3.540038824081421,1.15966796875
-0.215576171875,0.9329833984375,-0.3094482421875,3.967284917831421,-4.33349609375,0.9155272841453552
-0.194580078125,0.929443359375,-0.338134765625,2.624511480331421,-5.676269054412842,0.4272460639476776
-0.212890625,0.9219970703125,-0.3238525390625,2.563476324081421,-6.896972179412842,-0.54931640625
-0.204345703125,0.9171142578125,-0.32177734375,3.173827886581421,-6.652831554412842,-0.4882812201976776
-0.1953125,0.9141845703125,-0.3214111328125,0.3662109076976776,-6.042479991912842,-1.220703125
-0.1927490234375,0.9111328125,-0.326416015625,1.4038084745407104,-5.432128429412842,-1.7700194120407104
-0.189208984375,0.919921875,-0.3211669921875,2.685546636581421,-4.82177734375,-1.3427733182907104
-0.191650390625,0.92822265625,-0.3162841796875,2.197265625,-4.33349609375,-1.2817381620407104
-0.1885986328125,0.930908203125,-0.315185546875,0.6713866591453552,-3.540038824081421,-1.220703125
-0.184814453125,0.9197998046875,-0.32275390625,-1.03759765625,-2.990722417831421,-1.7700194120407104
-0.1795654296875,0.9208984375,-0.3197021484375,0.0,-2.563476324081421,-1.4648436307907104
-0.1812744140625,0.9136962890625,-0.312744140625,-1.2817381620407104,-2.01416015625,-1.5869139432907104
-0.1815185546875,0.915771484375,-0.3145751953125,0.6103515625,-1.4038084745407104,-0.9155272841453552
-0.1837158203125,0.92919921875,-0.3115234375,2.197265625,-1.03759765625,-0.6713866591453552
-0.1824951171875,0.927490234375,-0.3150634765625,0.9765624403953552,-1.220703125,-1.03759765625
-0.1845703125,0.916259765625,-0.3253173828125,-0.9765624403953552,-1.15966796875,-1.2817381620407104
-0.1761474609375,0.9228515625,-0.329833984375,-0.2441406100988388,-1.220703125,-1.220703125
-0.2255859375,1.6190185546875,-0.77490234375,-36.2548828125,-52.185054779052734,-95.58104705810547
-0.345703125,1.6146240234375,-0.637939453125,-22.094724655151367,-77.5146484375,-150.45166015625
-0.3516845703125,1.50732421875,-0.685546875,-6.347655773162842,-101.01317596435547,-204.34568786621094
-0.17919921875,1.433837890625,-0.759033203125,22.216794967651367,-128.96728515625,-244.14060974121094
0.02783203125,1.379150390625,-0.7125244140625,46.752925872802734,-156.55517578125,-266.17431640625
0.204345703125,1.3482666015625,-0.66357421875,80.62743377685547,-177.00193786621094,-275.0244140625
0.303955078125,0.958984375,-0.497314453125,109.06981658935547,-190.85691833496094,-271.91162109375
0.0799560546875,0.34033203125,-0.100341796875,96.25243377685547,-173.03465270996094,-282.1044921875
0.1063232421875,0.2093505859375,-0.076416015625,103.82079315185547,-149.47509765625,-259.82666015625
0.0841064453125,0.053466796875,0.15185546875,74.8291015625,-132.080078125,-237.36570739746094
0.1160888671875,0.078857421875,0.110595703125,49.621578216552734,-114.99022674560547,-218.74998474121094
0.2491455078125,0.028564453125,0.1905517578125,11.840819358825684,-96.19139862060547,-192.38279724121094
0.338623046875,-0.0311279296875,0.2755126953125,-8.30078125,-80.99364471435547,-165.64939880371094
0.49853515625,-0.087890625,0.346435546875,-9.21630859375,-62.377925872802734,-130.9814453125
0.6861572265625,-0.112060546875,0.400634765625,-9.33837890625,-52.734371185302734,-96.61864471435547
0.7724609375,-0.0435791015625,0.535888671875,-24.475095748901367,-44.128414154052734,-69.2138671875
0.8721923828125,-0.101318359375,0.5390625,-20.935056686401367,-33.26416015625,-50.720211029052734
0.88525390625,-0.2054443359375,0.5780029296875,-16.90673828125,-25.695798873901367,-37.04833984375
0.900146484375,-0.1812744140625,0.5677490234375,-16.54052734375,-16.845703125,-23.254392623901367
0.931640625,-0.129638671875,0.5623779296875,-12.817381858825684,-13.244627952575684,-17.08984375
0.926513671875,-0.1064453125,0.583984375,-14.038084983825684,-7.873534679412842,-12.023924827575684
0.8994140625,-0.12548828125,0.5123291015625,-14.221190452575684,-1.0986328125,-7.202147960662842
0.89111328125,-0.121826171875,0.5223388671875,-11.901854515075684,1.7700194120407104,-0.0610351525247097
0.884033203125,-0.0643310546875,0.5394287109375,-8.48388671875,5.065917491912842,8.1787109375
0.8931884765625,-0.0357666015625,0.4534912109375,-6.774901866912842,9.46044921875,12.268065452575684
0.9156494140625,-0.051513671875,0.4161376953125,-5.493163585662842,9.1552734375,13.061522483825684
0.8836669921875,-0.0372314453125,0.431884765625,-5.432128429412842,12.084959983825684,15.930174827575684
0.8955078125,-0.033935546875,0.434326171875,-5.187987804412842,14.343260765075684,20.01953125
0.8939208984375,-0.0037841796875,0.4736328125,-2.44140625,15.380858421325684,24.597166061401367
0.8956298828125,0.001953125,0.4512939453125,-0.6103515625,16.66259765625,26.489255905151367
0.89990234375,-0.0018310546875,0.434326171875,-2.868652105331421,18.5546875,29.602048873901367
0.9149169921875,0.0274658203125,0.4404296875,-6.713866710662842,20.996091842651367,35.70556640625
0.9451904296875,0.05419921875,0.4326171875,-9.033203125,24.658201217651367,39.36767578125
0.936767578125,0.0167236328125,0.4459228515625,-11.840819358825684,32.04345703125,45.654293060302734
0.883544921875,-0.003173828125,0.403076171875,-17.15087890625,37.59765625,49.011226654052734
0.8089599609375,0.0306396484375,0.3583984375,-17.9443359375,45.715328216552734,55.664058685302734
0.825927734375,0.0888671875,0.323974609375,-16.4794921875,52.001949310302734,66.7724609375
0.784912109375,0.1456298828125,0.32470703125,-15.319823265075684,58.471675872802734,76.2939453125
0.7696533203125,0.183837890625,0.2347412109375,-12.145995140075684,62.499996185302734,85.20507049560547
0.760009765625,0.2342529296875,0.2255859375,-15.869139671325684,66.58935546875,96.37450408935547
0.740966796875,0.269775390625,0.166015625,-23.376462936401367,68.29833984375,102.60009002685547
0.7845458984375,0.3936767578125,0.134765625,-26.123044967651367,72.44873046875,105.46874237060547
0.717529296875,0.3839111328125,0.1005859375,-14.648436546325684,75.5615234375,109.98534393310547
0.745361328125,0.516357421875,0.0255126953125,-10.192870140075684,76.171875,113.40331268310547
0.6976318359375,0.5552978515625,-0.0008544921875,-10.314940452575684,77.94189453125,114.37987518310547
0.7398681640625,0.6463623046875,-0.0762939453125,-7.202147960662842,76.11083984375,116.27196502685547
0.7530517578125,0.678955078125,-0.1248779296875,-16.4794921875,72.69287109375,112.48778533935547
0.599853515625,0.717529296875,-0.1158447265625,-21.972654342651367,70.6787109375,108.82567596435547
0.54150390625,0.76171875,-0.114990234375,-17.08984375,71.59423828125,109.19188690185547
0.5546875,0.8514404296875,-0.2457275390625,-16.66259765625,70.9228515625,105.16356658935547
0.5185546875,0.8623046875,-0.2896728515625,-22.338865280151367,64.5751953125,99.24315643310547
0.452392578125,0.9326171875,-0.2891845703125,-22.399900436401367,58.837886810302734,93.56688690185547
0.39697265625,0.959716796875,-0.2933349609375,-24.719236373901367,55.236812591552734,87.46337127685547
0.323486328125,0.9383544921875,-0.317138671875,-19.04296875,51.208492279052734,79.40673828125
0.278076171875,0.95703125,-0.350341796875,-10.925292015075684,49.438472747802734,73.2421875
0.192626953125,0.9583740234375,-0.366943359375,-7.751464366912842,41.931148529052734,60.241695404052734
0.1944580078125,0.9691162109375,-0.3787841796875,-4.21142578125,38.0859375,56.884761810302734
0.1611328125,0.9544677734375,-0.3701171875,-6.958007335662842,35.2783203125,50.720211029052734
0.142333984375,0.9703369140625,-0.37255859375,-5.493163585662842,33.935546875,48.278804779052734
0.104248046875,0.94189453125,-0.384521484375,-9.6435546875,29.296873092651367,47.363277435302734
0.0755615234375,0.9200439453125,-0.36181640625,-9.1552734375,27.282712936401367,43.334957122802734
0.0350341796875,0.943115234375,-0.3599853515625,-5.737304210662842,28.320310592651367,39.61181640625
0.0404052734375,0.9217529296875,-0.3804931640625,-9.09423828125,26.672361373901367,40.161128997802734
0.001953125,0.90234375,-0.368896484375,0.4882812201976776,25.085447311401367,45.227046966552734
-0.002685546875,0.9329833984375,-0.3834228515625,-2.38037109375,26.428220748901367,39.1845703125
-0.0155029296875,0.94384765625,-0.3863525390625,-6.103515148162842,23.986814498901367,39.306640625
-0.063232421875,0.892578125,-0.362060546875,-0.4272460639476776,23.559568405151367,39.6728515625
-0.08740234375,0.8883056640625,-0.355224609375,0.8544921278953552,24.780271530151367,39.85595703125
-0.0869140625,0.9349365234375,-0.3785400390625,-1.03759765625,25.939939498901367,37.65869140625
-0.1046142578125,0.94580078125,-0.3612060546875,-0.1220703050494194,25.329587936401367,37.353515625
-0.12353515625,0.922607421875,-0.3734130859375,-3.051757574081421,24.169919967651367,38.57421875
-0.1474609375,0.8865966796875,-0.3505859375,-2.746581792831421,24.353025436401367,42.785640716552734
-0.1890869140625,0.8876953125,-0.330810546875,-16.54052734375,26.306150436401367,37.53662109375
-0.1849365234375,0.8970947265625,-0.3753662109375,-22.094724655151367,28.930662155151367,38.14697265625
-0.2039794921875,0.91015625,-0.450439453125,-40.222164154052734,27.526853561401367,35.82763671875
-0.204833984375,0.9656982421875,-0.4580078125,-41.748043060302734,26.123044967651367,33.63037109375
-0.244384765625,1.0157470703125,-0.510009765625,-34.5458984375,23.498533248901367,24.597166061401367
-0.2564697265625,0.9761962890625,-0.5478515625,-32.65380859375,14.648436546325684,14.587401390075684
-0.27099609375,1.040283203125,-0.5101318359375,-12.512206077575684,7.141112804412842,2.0751953125
-0.3011474609375,1.0113525390625,-0.469482421875,-2.44140625,3.295898199081421,-15.808104515075684
-0.2861328125,0.85693359375,-0.4842529296875,-4.7607421875,-0.9155272841453552,-22.766111373901367
-0.2515869140625,0.819580078125,-0.474365234375,0.0610351525247097,-4.21142578125,-19.775390625
-0.22314453125,0.8056640625,-0.4429931640625,1.8310545682907104,-6.286620616912842,-13.061522483825684
-0.2193603515625,0.8092041015625,-0.4429931640625,1.3427733182907104,-6.958007335662842,-4.150390625
-0.2178955078125,0.794677734375,-0.4503173828125,0.0610351525247097,-7.080077648162842,0.54931640625
-0.226806640625,0.8145751953125,-0.433837890625,4.33349609375,-7.873534679412842,6.652831554412842
-0.25732421875,0.9171142578125,-0.392333984375,15.747069358825684,-6.835937023162842,8.60595703125
-0.281494140625,0.9449462890625,-0.3890380859375,25.024412155151367,-4.638671875,1.220703125
-0.2679443359375,0.9024658203125,-0.4473876953125,17.63916015625,-5.310058116912842,-5.859374523162842
-0.237548828125,0.8526611328125,-0.4552001953125,10.253905296325684,-6.958007335662842,-8.30078125
-0.228759765625,0.841552734375,-0.4248046875,2.685546636581421,-6.713866710662842,-8.30078125
-0.228515625,0.8377685546875,-0.4248046875,-0.1831054538488388,-5.859374523162842,-5.065917491912842
-0.206787109375,0.8734130859375,-0.4471435546875,2.990722417831421,-3.784179449081421,-3.295898199081421
-0.1954345703125,0.886962890625,-0.4556884765625,6.103515148162842,-3.051757574081421,-6.347655773162842
-0.199951171875,0.877685546875,-0.4671630859375,9.3994140625,-3.845214605331421,-6.042479991912842
-0.1734619140625,0.8853759765625,-0.4534912109375,6.774901866912842,-3.356933355331421,-3.967284917831421
-0.166259765625,0.878662109375,-0.43408203125,2.01416015625,-1.7700194120407104,-4.8828125
-0.1727294921875,0.873291015625,-0.442626953125,4.5166015625,-0.0610351525247097,-2.868652105331421
-0.1484375,0.8939208984375,-0.4462890625,6.469726085662842,1.9531248807907104,0.30517578125
-0.1705322265625,0.8876953125,-0.43212890625,4.45556640625,3.356933355331421,0.3662109076976776
-0.194580078125,0.8770751953125,-0.404541015625,7.324218273162842,4.7607421875,0.8544921278953552
-0.2049560546875,0.87939453125,-0.3963623046875,9.09423828125,5.859374523162842,-0.0610351525247097
-0.208251953125,0.8927001953125,-0.3994140625,8.1787109375,6.042479991912842,-0.3662109076976776
-0.20703125,0.8970947265625,-0.3731689453125,4.0283203125,5.920409679412842,-1.7700194120407104
-0.2288818359375,0.8907470703125,-0.3695068359375,0.30517578125,4.21142578125,-2.807616949081421
-0.21044921875,0.8956298828125,-0.368896484375,1.3427733182907104,2.685546636581421,-2.197265625
-0.1995849609375,0.8970947265625,-0.3612060546875,-0.7934569716453552,2.0751953125,-2.563476324081421
-0.211669921875,0.879638671875,-0.36669921875,0.7324218153953552,1.5258787870407104,-2.50244140625
-0.22802734375,0.87841796875,-0.373291015625,3.356933355331421,0.7324218153953552,-0.7324218153953552
-0.2056884765625,0.898193359375,-0.3887939453125,2.0751953125,0.1831054538488388,-0.54931640625
-0.201416015625,0.8944091796875,-0.3599853515625,-3.112792730331421,-0.30517578125,-3.967284917831421
-0.21728515625,0.859619140625,-0.3580322265625,-0.4882812201976776,0.30517578125,-5.676269054412842
-0.2078857421875,0.86474609375,-0.3812255859375,1.220703125,0.7324218153953552,-5.126952648162842
-0.2017822265625,0.90087890625,-0.3817138671875,0.54931640625,0.2441406100988388,-4.45556640625
-0.202392578125,0.9051513671875,-0.37255859375,0.30517578125,-0.9765624403953552,-4.2724609375
-0.2080078125,0.9061279296875,-0.3717041015625,1.220703125,-2.197265625,-4.45556640625
-0.2203369140625,0.898193359375,-0.3870849609375,-0.1831054538488388,-3.784179449081421,-4.82177734375
-0.2064208984375,0.89404296875,-0.4078369140625,0.9155272841453552,-7.141112804412842,-3.723144292831421
-0.34228515625,1.5081787109375,-0.8565673828125,-8.1787109375,-56.274410247802734,-107.11669158935547
-0.434814453125,1.5057373046875,-0.929443359375,12.817381858825684,-79.16259765625,-157.5927734375
-0.4398193359375,1.4342041015625,-0.9342041015625,24.780271530151367,-102.53905487060547,-207.76365661621094
-0.30419921875,1.4437255859375,-0.9129638671875,37.41455078125,-129.69970703125,-253.66209411621094
-0.0750732421875,1.395751953125,-0.85888671875,51.696773529052734,-149.23095703125,-274.4140625
0.2509765625,1.160400390625,-0.798828125,96.13036346435547,-189.08689880371094,-289.97802734375
0.3118896484375,0.80126953125,-0.3677978515625,119.62889862060547,-208.43504333496094,-291.07666015625
0.197021484375,0.4893798828125,-0.13037109375,111.32811737060547,-200.43943786621094,-290.46630859375
0.1837158203125,0.1104736328125,-0.0235595703125,99.42626190185547,-184.44822692871094,-280.2734375
0.0572509765625,0.0341796875,0.168701171875,99.42626190185547,-173.82810974121094,-252.99070739746094
-0.0555419921875,-0.116455078125,0.2274169921875,68.359375,-145.32470703125,-230.40769958496094
0.0045166015625,-0.1531982421875,0.3299560546875,14.892577171325684,-115.05126190185547,-188.84275817871094
0.2542724609375,-0.094970703125,0.3746337890625,1.4648436307907104,-74.64599609375,-131.4697265625
0.5469970703125,0.0401611328125,0.312255859375,2.868652105331421,-54.992671966552734,-82.51952362060547
0.722412109375,-0.0281982421875,0.5318603515625,-13.610838890075684,-49.804683685302734,-52.490230560302734
0.7696533203125,-0.049072265625,0.7508544921875,-17.88330078125,-29.174802780151367,-17.578125
0.8360595703125,-0.0748291015625,0.5928955078125,-13.916014671325684,-14.465331077575684,5.859374523162842
0.9857177734375,0.0224609375,0.5111083984375,-21.240232467651367,-12.207030296325684,13.244627952575684
0.9437255859375,0.0804443359375,0.6492919921875,-36.4990234375,-8.544921875,6.103515148162842
0.892333984375,0.045654296875,0.598876953125,-36.19384765625,0.30517578125,11.047362327575684
0.91845703125,0.0970458984375,0.4813232421875,-21.545408248901367,4.5166015625,13.732909202575684
0.95556640625,0.183837890625,0.4556884765625,-13.000487327575684,4.69970703125,12.634276390075684
0.871337890625,0.198974609375,0.4635009765625,-6.958007335662842,7.751464366912842,8.23974609375
0.852783203125,0.16259765625,0.4239501953125,1.7089842557907104,12.329100608825684,10.925292015075684
0.8665771484375,0.1949462890625,0.402099609375,6.286620616912842,13.000487327575684,9.3994140625
0.8341064453125,0.2022705078125,0.4183349609375,10.192870140075684,15.136717796325684,13.000487327575684
0.84033203125,0.1943359375,0.3924560546875,5.615233898162842,18.06640625,11.108397483825684
0.865234375,0.18408203125,0.3980712890625,3.295898199081421,17.88330078125,12.268065452575684
0.858154296875,0.175048828125,0.447509765625,0.30517578125,22.766111373901367,22.460935592651367
0.932373046875,0.195556640625,0.4188232421875,-7.751464366912842,27.770994186401367,28.259275436401367
0.9136962890625,0.1614990234375,0.3883056640625,-9.3994140625,31.372068405151367,33.69140625
0.8681640625,0.1800537109375,0.4110107421875,-14.831542015075684,37.29248046875,38.87939453125
0.8912353515625,0.2171630859375,0.3377685546875,-12.817381858825684,42.114253997802734,40.10009765625
0.8360595703125,0.1810302734375,0.3331298828125,-11.657713890075684,45.349117279052734,44.250484466552734
0.874755859375,0.2537841796875,0.30078125,-13.854979515075684,51.574703216552734,51.635738372802734
0.8460693359375,0.2701416015625,0.2447509765625,-18.00537109375,55.664058685302734,54.748531341552734
0.7801513671875,0.280517578125,0.2108154296875,-12.207030296325684,61.767574310302734,59.509273529052734
0.805419921875,0.3187255859375,0.1629638671875,-11.352538108825684,68.17626953125,68.115234375
0.7808837890625,0.3834228515625,0.1092529296875,-13.305663108825684,72.8759765625,71.1669921875
0.76416015625,0.4561767578125,0.0426025390625,4.82177734375,79.28466796875,77.392578125
0.8116455078125,0.4310302734375,-0.013427734375,6.225585460662842,78.30810546875,79.7119140625
0.7593994140625,0.5169677734375,-0.0194091796875,10.009765625,77.81982421875,79.345703125
0.7059326171875,0.558349609375,0.008056640625,8.6669921875,77.57568359375,82.27538299560547
0.7056884765625,0.590576171875,-0.06298828125,11.108397483825684,75.927734375,84.77782440185547
0.7044677734375,0.6298828125,-0.1278076171875,9.46044921875,69.4580078125,88.13475799560547
0.65283203125,0.6878662109375,-0.1209716796875,1.5258787870407104,63.598628997802734,87.40233612060547
0.636962890625,0.7569580078125,-0.144775390625,-1.8310545682907104,63.049312591552734,86.85301971435547
0.6256103515625,0.7528076171875,-0.21044921875,-12.634276390075684,57.800289154052734,85.38817596435547
0.5269775390625,0.8577880859375,-0.229248046875,-15.747069358825684,50.720211029052734,81.84813690185547
0.4454345703125,0.8682861328125,-0.332763671875,-24.963376998901367,44.494625091552734,75.68359375
