time,ax,ay,az,gx,gy,gz,label,person
1772894705.6774936,-0.0867919921875,0.827392578125,-0.4102783203125,2.0751953125,0.1220703050494194,-12.451170921325684,0,gustav
1772894705.7188146,-0.0902099609375,0.8472900390625,-0.3779296875,-5.737304210662842,5.310058116912842,-11.047362327575684,0,gustav
1772894705.7518148,-0.0855712890625,0.8587646484375,-0.399169921875,-4.45556640625,7.934569835662842,-5.920409679412842,0,gustav
1772894705.7787826,-0.101318359375,0.847900390625,-0.3792724609375,-3.967284917831421,6.408690929412842,-3.845214605331421,0,gustav
1772894705.8259106,-0.1029052734375,0.848388671875,-0.35546875,3.417968511581421,6.713866710662842,-0.2441406100988388,0,gustav
1772894705.8667395,-0.07177734375,0.8905029296875,-0.3858642578125,1.0986328125,5.310058116912842,1.0986328125,0,gustav
1772894705.8980637,-0.09423828125,0.8896484375,-0.399169921875,3.112792730331421,3.662109136581421,1.4648436307907104,0,gustav
1772894705.9626682,-0.0926513671875,0.9027099609375,-0.37841796875,5.065917491912842,3.051757574081421,2.0751953125,0,gustav
1772894705.9781826,-0.104248046875,0.9129638671875,-0.4150390625,2.3193359375,1.8920897245407104,-2.624511480331421,0,gustav
1772894706.0221984,-0.094970703125,0.9302978515625,-0.415283203125,7.690429210662842,0.2441406100988388,-4.0283203125,0,gustav
1772894706.0672174,-0.09228515625,0.9244384765625,-0.41650390625,6.652831554412842,-2.38037109375,-7.019042491912842,0,gustav
1772894706.0911994,-0.0916748046875,0.9241943359375,-0.4097900390625,9.521484375,-5.920409679412842,-7.385253429412842,0,gustav
1772894706.1241825,-0.082275390625,0.9520263671875,-0.3953857421875,2.3193359375,-9.58251953125,-10.009765625,0,gustav
1772894706.1563585,-0.0238037109375,1.127685546875,-0.4432373046875,-0.4882812201976776,-12.145995140075684,-18.24951171875,0,gustav
1772894706.1995578,0.0067138671875,1.3377685546875,-0.5941162109375,-2.38037109375,-22.094724655151367,-46.386714935302734,0,gustav
1772894706.2753859,-0.0902099609375,1.4576416015625,-0.5909423828125,-3.906249761581421,-36.2548828125,-103.21044158935547,0,gustav
1772894706.2753859,-0.069091796875,1.3590087890625,-0.50634765625,15.075682640075684,-44.433589935302734,-149.4140625,0,gustav
1772894706.3239226,0.1346435546875,1.314697265625,-0.6563720703125,21.301267623901367,-49.133296966552734,-186.58445739746094,0,gustav
1772894706.3508136,0.2174072265625,1.1767578125,-0.49609375,24.719236373901367,-63.476558685302734,-213.74510192871094,0,gustav
1772894706.4059815,0.2108154296875,0.9176025390625,-0.3289794921875,38.2080078125,-67.44384765625,-219.05516052246094,0,gustav
1772894706.4565601,0.4112548828125,0.8486328125,-0.29443359375,31.860349655151367,-65.3076171875,-213.68406677246094,0,gustav
1772894706.4727032,0.45068359375,0.5682373046875,-0.252685546875,26.489255905151367,-66.89453125,-215.75926208496094,0,gustav
1772894706.5001256,0.43212890625,0.3931884765625,-0.0653076171875,12.390135765075684,-56.762691497802734,-201.04978942871094,0,gustav
1772894706.5455256,0.539794921875,0.2901611328125,-0.1300048828125,3.723144292831421,-53.344722747802734,-189.02586364746094,0,gustav
1772894706.5724626,0.56298828125,0.2607421875,-0.0152587890625,0.6103515625,-50.903316497802734,-174.37742614746094,0,gustav
1772894706.6520755,0.7127685546875,0.13330078125,-0.14208984375,0.0,-51.940914154052734,-176.33055114746094,0,gustav
1772894706.667735,0.679443359375,0.1048583984375,0.047607421875,8.4228515625,-60.363765716552734,-162.53660583496094,0,gustav
1772894706.6970289,0.91259765625,0.0653076171875,0.0560302734375,-12.023924827575684,-62.622066497802734,-172.54637145996094,0,gustav
1772894706.770603,0.654541015625,-0.2098388671875,0.0223388671875,-33.50830078125,-72.93701171875,-183.16648864746094,0,gustav
1772894706.770603,0.82421875,-0.0711669921875,0.0955810546875,-51.940914154052734,-57.373043060302734,-164.73387145996094,0,gustav
1772894706.878363,0.735595703125,-0.263671875,0.003662109375,-80.44432830810547,-70.80078125,-154.78515625,0,gustav
1772894706.9057887,0.7978515625,-0.180908203125,0.3262939453125,-2.01416015625,-48.217769622802734,-86.12059783935547,0,gustav
1772894706.922217,0.83642578125,-0.5989990234375,0.33251953125,11.840819358825684,-35.5224609375,-41.503902435302734,0,gustav
1772894706.9453824,0.803955078125,-0.5419921875,0.2811279296875,63.964839935302734,-16.357421875,-8.11767578125,0,gustav
1772894707.0063608,0.941650390625,-0.7362060546875,0.403564453125,56.823726654052734,-3.601073980331421,9.3994140625,0,gustav
1772894707.36751,0.98779296875,-0.6329345703125,0.354736328125,41.381832122802734,-0.2441406100988388,27.893064498901367,0,gustav
1772894707.4314396,0.9359130859375,-0.7047119140625,0.3533935546875,17.02880859375,4.0283203125,47.058101654052734,0,gustav
1772894707.4314396,0.932861328125,-0.6180419921875,0.311767578125,0.30517578125,15.991209983825684,72.75390625,0,gustav
1772894707.4314396,0.9034423828125,-0.5614013671875,0.3082275390625,0.7324218153953552,21.301267623901367,94.17723846435547,0,gustav
1772894707.4314396,0.8048095703125,-0.2713623046875,0.1884765625,12.817381858825684,38.87939453125,150.5126953125,0,gustav
1772894707.4905117,0.6697998046875,0.593017578125,-0.103759765625,-6.042479991912842,53.833003997802734,166.07664489746094,0,gustav
1772894707.4905117,0.656982421875,0.774169921875,-0.138916015625,-14.221190452575684,54.016109466552734,161.68211364746094,0,gustav
1772894707.5467908,0.604736328125,0.8114013671875,-0.1851806640625,-19.10400390625,44.311519622802734,144.53125,0,gustav
1772894707.6102905,0.460693359375,0.8743896484375,-0.1864013671875,-19.04296875,41.076656341552734,141.41845703125,0,gustav
1772894707.6704204,0.47021484375,1.010986328125,-0.27392578125,-29.235837936401367,30.090330123901367,125.91551971435547,0,gustav
1772894707.7917926,0.3453369140625,1.0028076171875,-0.2615966796875,-36.80419921875,19.287109375,106.99462127685547,0,gustav
1772894707.8534887,0.3328857421875,1.0787353515625,-0.335693359375,-48.339839935302734,10.864256858825684,87.76854705810547,0,gustav
1772894707.9683733,0.1563720703125,0.978515625,-0.322998046875,-46.386714935302734,5.249022960662842,70.80078125,0,gustav
1772894708.0298467,0.13916015625,0.973876953125,-0.400390625,-28.869626998901367,5.798339366912842,59.509273529052734,0,gustav
1772894708.0922039,0.1031494140625,0.9273681640625,-0.4139404296875,-7.690429210662842,10.681151390075684,39.00146484375,0,gustav
1772894708.0922039,0.1331787109375,0.798095703125,-0.385498046875,20.751951217651367,26.489255905151367,41.809078216552734,0,gustav
1772894708.0939503,0.0924072265625,0.8756103515625,-0.3038330078125,15.319823265075684,45.898433685302734,73.91357421875,0,gustav
1772894708.0951772,0.0841064453125,0.963623046875,-0.350341796875,-2.50244140625,42.846675872802734,66.5283203125,0,gustav
1772894708.1511526,-0.078857421875,0.9945068359375,-0.3155517578125,-0.2441406100988388,35.70556640625,61.950679779052734,0,gustav
1772894708.270534,-0.1268310546875,1.0640869140625,-0.4171142578125,7.385253429412842,22.216794967651367,58.898921966552734,0,gustav
1772894708.270534,-0.1192626953125,1.0438232421875,-0.3236083984375,3.662109136581421,9.82666015625,53.588863372802734,0,gustav
1772894708.270534,-0.1982421875,1.0194091796875,-0.3653564453125,14.953612327575684,5.249022960662842,43.884273529052734,0,gustav
1772894708.3306293,-0.2490234375,0.912109375,-0.2598876953125,3.723144292831421,3.295898199081421,41.381832122802734,0,gustav
1772894708.3306293,-0.26318359375,0.9075927734375,-0.308349609375,-4.8828125,1.8310545682907104,39.24560546875,0,gustav
1772894708.392734,-0.2579345703125,1.034423828125,-0.34033203125,-3.540038824081421,-0.7324218153953552,27.954099655151367,0,gustav
1772894708.5127428,-0.3074951171875,1.0743408203125,-0.2659912109375,-1.7089842557907104,-2.13623046875,4.82177734375,0,gustav
1772894708.5127428,-0.2813720703125,1.242919921875,-0.41943359375,19.59228515625,-10.070799827575684,-29.052732467651367,0,gustav
1772894708.5127428,-0.315185546875,1.1981201171875,-0.287109375,3.723144292831421,-18.12744140625,-65.49072265625,0,gustav
1772894708.5669558,-0.22412109375,1.1802978515625,-0.396240234375,9.3994140625,-25.878904342651367,-90.20995330810547,0,gustav
1772894708.5669558,-0.124267578125,1.236328125,-0.3262939453125,-19.775390625,-30.151365280151367,-114.50194549560547,0,gustav
1772894708.6319637,-0.0709228515625,1.1246337890625,-0.3245849609375,-13.916014671325684,-34.24072265625,-128.47900390625,0,gustav
1772894708.6904984,0.0535888671875,1.1981201171875,-0.4365234375,-10.620116233825684,-36.7431640625,-139.404296875,0,gustav
1772894708.6904984,0.1531982421875,1.154541015625,-0.3458251953125,-10.131834983825684,-43.457027435302734,-149.23095703125,0,gustav
1772894708.7489018,0.135009765625,0.8494873046875,-0.2203369140625,-2.01416015625,-47.485347747802734,-155.8837890625,0,gustav
1772894708.8095174,0.354736328125,1.0426025390625,-0.4063720703125,-2.563476324081421,-57.312007904052734,-152.34375,0,gustav
1772894708.8095174,0.1136474609375,0.6158447265625,-0.18701171875,-15.686034202575684,-65.85693359375,-158.63037109375,0,gustav
1772894709.045926,0.2418212890625,0.6898193359375,-0.1619873046875,-1.8920897245407104,-51.940914154052734,-137.6953125,0,gustav
1772894709.045926,0.4345703125,0.66796875,-0.399658203125,-11.474608421325684,-46.997066497802734,-133.4228515625,0,gustav
1772894709.045926,0.4407958984375,0.5975341796875,-0.20458984375,-10.620116233825684,-52.307125091552734,-135.7421875,0,gustav
1772894709.0567093,0.768310546875,0.78955078125,-0.209716796875,-14.099120140075684,-46.630855560302734,-149.169921875,0,gustav
1772894709.2904088,0.6392822265625,0.101318359375,-0.1673583984375,31.188962936401367,-68.17626953125,-188.11033630371094,0,gustav
1772894709.2904088,0.830078125,0.0369873046875,0.0958251953125,-24.597166061401367,-58.898921966552734,-173.09568786621094,0,gustav
1772894709.2904088,0.64892578125,-0.1009521484375,0.0166015625,-45.898433685302734,-65.24658203125,-176.14744567871094,0,gustav
1772894709.2904088,0.77392578125,-0.1231689453125,0.0833740234375,-41.076656341552734,-58.654781341552734,-130.126953125,0,gustav
1772894709.4130316,0.9700927734375,-0.5517578125,0.2841796875,-9.6435546875,-46.020503997802734,-46.203609466552734,0,gustav
1772894709.5904634,0.8614501953125,-0.3240966796875,0.2459716796875,30.578611373901367,-22.949216842651367,-33.203125,0,gustav
1772894709.5904634,0.9315185546875,-0.4923095703125,0.4112548828125,29.907224655151367,-10.864256858825684,-17.9443359375,0,gustav
1772894709.5904634,0.9752197265625,-0.4783935546875,0.341552734375,35.94970703125,-1.4038084745407104,-3.112792730331421,0,gustav
1772894709.5904634,0.9456787109375,-0.493408203125,0.300048828125,19.53125,2.38037109375,7.507323741912842,0,gustav
1772894709.6521623,0.886474609375,-0.3577880859375,0.2236328125,14.343260765075684,18.12744140625,52.978511810302734,0,gustav
1772894709.7673664,0.8726806640625,-0.34912109375,0.20849609375,16.845703125,22.766111373901367,71.83837890625,0,gustav
1772894709.773728,0.849853515625,-0.232177734375,0.177978515625,37.90283203125,32.04345703125,94.60448455810547,0,gustav
1772894709.773728,0.8134765625,-0.26220703125,0.1837158203125,41.748043060302734,36.68212890625,120.05614471435547,0,gustav
1772894709.7743394,0.7525634765625,-0.19189453125,0.151123046875,50.292964935302734,41.015621185302734,141.29638671875,0,gustav
1772894709.9498932,0.7265625,-0.06982421875,0.1585693359375,48.034664154052734,50.292964935302734,167.05320739746094,0,gustav
1772894709.9498932,0.9605712890625,0.0946044921875,0.061767578125,16.54052734375,52.856441497802734,159.423828125,0,gustav
1772894709.9498932,0.9708251953125,0.2235107421875,0.05859375,1.9531248807907104,61.035152435302734,154.1748046875,0,gustav
1772894709.9561958,0.9468994140625,0.3758544921875,-0.082275390625,-4.39453125,62.011714935302734,144.04296875,0,gustav
1772894710.0118785,0.9923095703125,0.4893798828125,-0.1337890625,-22.583005905151367,55.786128997802734,129.21142578125,0,gustav
1772894710.0118785,0.753662109375,0.5137939453125,-0.1136474609375,-3.112792730331421,52.368160247802734,129.45556640625,0,gustav
1772894710.1239223,0.9327392578125,0.701904296875,-0.2603759765625,-8.9111328125,41.625972747802734,120.17821502685547,0,gustav
1772894710.1239223,0.617919921875,0.63720703125,-0.19287109375,11.291502952575684,36.2548828125,115.53954315185547,0,gustav
1772894710.1239223,0.6951904296875,0.8282470703125,-0.2314453125,12.329100608825684,33.02001953125,115.41747283935547,0,gustav
1772894710.192007,0.51220703125,0.775146484375,-0.265869140625,1.5869139432907104,25.695798873901367,93.68895721435547,0,gustav
1772894710.251298,0.4351806640625,0.8319091796875,-0.230712890625,3.723144292831421,25.878904342651367,95.27587127685547,0,gustav
1772894710.2530537,0.4937744140625,0.8531494140625,-0.299072265625,-13.549803733825684,24.108884811401367,79.58984375,0,gustav
1772894710.3122678,0.332763671875,0.8868408203125,-0.230712890625,-5.249022960662842,26.977537155151367,86.66991424560547,0,gustav
1772894710.4307156,0.3282470703125,0.90869140625,-0.2735595703125,-10.803221702575684,27.038572311401367,77.880859375,0,gustav
1772894710.4307156,0.1934814453125,0.803955078125,-0.2628173828125,7.263183116912842,26.184080123901367,77.08740234375,0,gustav
1772894710.4307156,0.2193603515625,0.9495849609375,-0.2950439453125,8.97216796875,32.5927734375,71.10595703125,0,gustav
1772894710.4341278,0.1781005859375,0.8941650390625,-0.302734375,16.11328125,31.555173873901367,71.2890625,0,gustav
1772894710.5472224,0.16064453125,0.9898681640625,-0.21923828125,20.935056686401367,34.7900390625,74.951171875,0,gustav
1772894710.5472224,0.1473388671875,0.986572265625,-0.314453125,26.855466842651367,33.50830078125,75.13427734375,0,gustav
1772894710.5472224,0.086181640625,0.912109375,-0.255126953125,-11.291502952575684,32.71484375,76.0498046875,0,gustav
1772894710.7903495,-0.004638671875,0.8536376953125,-0.2637939453125,-26.794431686401367,34.97314453125,75.0732421875,0,gustav
1772894710.7903495,-0.0068359375,0.8402099609375,-0.3369140625,-34.24072265625,37.41455078125,85.44921112060547,0,gustav
1772894710.7903495,-0.1099853515625,0.854736328125,-0.2783203125,-16.6015625,36.92626953125,96.43553924560547,0,gustav
1772894710.7903495,-0.1585693359375,0.99169921875,-0.4017333984375,9.46044921875,34.24072265625,100.46385955810547,0,gustav
1772894710.8461149,-0.410888671875,1.18701171875,-0.3280029296875,1.7089842557907104,2.13623046875,33.447265625,0,gustav
1772894710.967893,-0.398681640625,1.133056640625,-0.3543701171875,-18.00537109375,-6.591796398162842,-5.249022960662842,0,gustav
1772894710.9729133,-0.37548828125,1.106689453125,-0.3887939453125,-29.235837936401367,-17.63916015625,-40.10009765625,0,gustav
1772894710.9749188,-0.313720703125,1.12451171875,-0.343994140625,-17.333984375,-23.742673873901367,-67.32177734375,0,gustav
1772894711.0309575,-0.289794921875,1.2158203125,-0.4559326171875,14.953612327575684,-30.639646530151367,-96.74071502685547,0,gustav
1772894711.0309575,-0.219482421875,1.2860107421875,-0.41259765625,29.357908248901367,-39.6728515625,-123.59618377685547,0,gustav
1772894711.0896118,-0.129638671875,1.3702392578125,-0.482666015625,37.29248046875,-46.936031341552734,-156.55517578125,0,gustav
1772894711.2121942,-0.0526123046875,1.1412353515625,-0.3037109375,20.629880905151367,-48.767086029052734,-183.95994567871094,0,gustav
1772894711.2121942,0.08251953125,1.1051025390625,-0.365966796875,-9.82666015625,-49.865718841552734,-185.72996520996094,0,gustav
1772894711.2121942,0.226318359375,0.9066162109375,-0.1923828125,-32.40966796875,-54.992671966552734,-187.43894958496094,0,gustav
1772894711.2700653,0.3656005859375,0.8538818359375,-0.338623046875,-18.06640625,-63.537593841552734,-181.70164489746094,0,gustav
1772894711.3919551,0.358154296875,0.598876953125,-0.1844482421875,-24.230955123901367,-60.729976654052734,-172.60740661621094,0,gustav
1772894711.3919551,0.4635009765625,0.6239013671875,-0.224365234375,-15.014647483825684,-59.936519622802734,-156.1279296875,0,gustav
1772894711.3919551,0.6236572265625,0.6043701171875,-0.2471923828125,-14.038084983825684,-63.293453216552734,-157.16552734375,0,gustav
1772894711.4509108,0.6041259765625,0.498779296875,-0.226806640625,10.437010765075684,-68.90869140625,-155.3955078125,0,gustav
1772894711.4509108,0.7586669921875,0.5281982421875,-0.0994873046875,-28.381345748901367,-61.706539154052734,-152.28271484375,0,gustav
1772894711.5119812,0.7259521484375,0.385498046875,-0.12158203125,-16.7236328125,-71.83837890625,-160.70555114746094,0,gustav
1772894711.5119812,0.673828125,0.1802978515625,-0.0101318359375,-38.14697265625,-61.889644622802734,-142.2119140625,0,gustav
1772894711.571904,0.87646484375,0.170654296875,-0.0477294921875,-53.833003997802734,-60.119625091552734,-128.47900390625,0,gustav
1772894711.6289,0.7637939453125,-0.0030517578125,0.0606689453125,-49.438472747802734,-60.058589935302734,-120.78856658935547,0,gustav
1772894711.6289,0.8953857421875,-0.0562744140625,0.078125,-51.391597747802734,-53.161617279052734,-116.82128143310547,0,gustav
1772894711.6905003,0.926025390625,-0.13671875,0.0994873046875,-66.5283203125,-60.913082122802734,-118.77440643310547,0,gustav
1772894711.7505918,0.8323974609375,-0.1158447265625,0.125244140625,-37.78076171875,-54.382320404052734,-116.02782440185547,0,gustav
1772894711.8684509,0.8785400390625,-0.0966796875,0.189208984375,-28.198240280151367,-58.654781341552734,-102.05077362060547,0,gustav
1772894711.8684509,0.7991943359375,-0.2403564453125,0.2718505859375,15.930174827575684,-34.1796875,-63.537593841552734,0,gustav
1772894711.8684509,0.896484375,-0.2779541015625,0.317138671875,21.423337936401367,-14.892577171325684,-14.099120140075684,0,gustav
1772894711.8684509,0.8988037109375,-0.3797607421875,0.3809814453125,13.916014671325684,-5.432128429412842,5.310058116912842,0,gustav
1772894711.9319701,1.021728515625,-0.4161376953125,0.314453125,17.51708984375,7.202147960662842,12.878417015075684,0,gustav
1772894712.051611,0.9927978515625,-0.402587890625,0.361328125,9.70458984375,3.540038824081421,10.681151390075684,0,gustav
1772894712.051611,0.952392578125,-0.371826171875,0.2542724609375,10.437010765075684,9.27734375,13.366698265075684,0,gustav
1772894712.051611,0.9288330078125,-0.34130859375,0.30517578125,8.36181640625,9.521484375,19.6533203125,0,gustav
1772894712.1082485,0.908203125,-0.308349609375,0.208740234375,18.6767578125,17.7001953125,35.58349609375,0,gustav
1772894712.1082485,0.92236328125,-0.2498779296875,0.1978759765625,18.37158203125,21.362302780151367,55.603023529052734,0,gustav
1772894712.1725836,0.91064453125,-0.267333984375,0.21484375,17.4560546875,25.329587936401367,75.62255859375,0,gustav
1772894712.226039,0.808349609375,-0.1466064453125,0.1549072265625,25.939939498901367,36.4990234375,100.95214080810547,0,gustav
1772894712.226039,0.84814453125,-0.204833984375,0.14306640625,21.362302780151367,37.841796875,123.41307830810547,0,gustav
1772894712.3472443,0.766845703125,-0.106689453125,0.1649169921875,20.080564498901367,39.73388671875,140.13671875,0,gustav
1772894712.3472443,0.7828369140625,0.051513671875,0.0689697265625,19.59228515625,45.654293060302734,157.28759765625,0,gustav
1772894712.4096344,0.9031982421875,0.1011962890625,0.0760498046875,16.11328125,45.288082122802734,155.76171875,0,gustav
1772894712.4096344,0.8887939453125,0.3211669921875,0.0443115234375,17.88330078125,45.410152435302734,162.71971130371094,0,gustav
1772894712.5304148,0.965087890625,0.4710693359375,-0.0484619140625,20.874021530151367,39.55078125,152.03857421875,0,gustav
1772894712.58956,0.876220703125,0.5986328125,-0.019287109375,9.765625,37.2314453125,143.12744140625,0,gustav
1772894712.58956,0.9267578125,0.72802734375,-0.125,-0.8544921278953552,28.686521530151367,124.69481658935547,0,gustav
1772894712.58956,0.6478271484375,0.692138671875,-0.0484619140625,-16.2353515625,26.123044967651367,118.46923065185547,0,gustav
1772894712.595239,0.6920166015625,0.87939453125,-0.197509765625,-40.283199310302734,21.789548873901367,105.22460174560547,0,gustav
1772894712.7120528,0.4964599609375,0.725341796875,-0.17333984375,-45.227046966552734,13.366698265075684,97.22899627685547,0,gustav
1772894712.7120528,0.4000244140625,0.8243408203125,-0.082275390625,-54.199214935302734,18.24951171875,94.84862518310547,0,gustav
1772894712.7136672,0.4249267578125,0.8543701171875,-0.3846435546875,-23.925779342651367,15.563963890075684,91.06444549560547,0,gustav
1772894712.772729,0.2366943359375,0.8372802734375,-0.2218017578125,-7.995604991912842,25.268552780151367,83.61815643310547,0,gustav
1772894712.8302095,0.349609375,0.9952392578125,-0.342529296875,12.573241233825684,23.498533248901367,72.69287109375,0,gustav
1772894712.8302095,0.2596435546875,0.8798828125,-0.2249755859375,10.314940452575684,22.644041061401367,68.29833984375,0,gustav
1772894712.9503646,0.3255615234375,1.0491943359375,-0.24072265625,-12.878417015075684,26.489255905151367,57.556148529052734,0,gustav
1772894712.9503646,0.22412109375,0.8623046875,-0.278564453125,-25.695798873901367,24.536130905151367,60.546871185302734,0,gustav
1772894712.9503646,0.23828125,0.9539794921875,-0.248779296875,-37.2314453125,37.353515625,55.480953216552734,0,gustav
1772894713.0091136,0.177978515625,0.7900390625,-0.3333740234375,-32.65380859375,41.748043060302734,60.913082122802734,0,gustav
1772894713.131556,0.135009765625,0.9638671875,-0.246337890625,-29.235837936401367,57.556148529052734,59.387203216552734,0,gustav
1772894713.131556,0.060302734375,0.891845703125,-0.35498046875,-1.7700194120407104,57.861324310302734,66.162109375,0,gustav
1772894713.131556,0.082763671875,1.08935546875,-0.4268798828125,-6.530761241912842,57.434078216552734,60.241695404052734,0,gustav
1772894713.2512314,-0.055908203125,0.94384765625,-0.3074951171875,0.54931640625,53.161617279052734,56.823726654052734,0,gustav
1772894713.3104675,-0.073974609375,1.016845703125,-0.4569091796875,-2.685546636581421,46.752925872802734,50.720211029052734,0,gustav
1772894713.3104675,-0.126708984375,0.9720458984375,-0.4246826171875,-7.202147960662842,35.46142578125,44.860836029052734,0,gustav
1772894713.3104675,-0.16552734375,0.9376220703125,-0.427978515625,-0.6713866591453552,24.291990280151367,39.1845703125,0,gustav
1772894713.3694434,-0.1788330078125,0.927490234375,-0.4044189453125,-0.6713866591453552,16.66259765625,35.888671875,0,gustav
1772894713.3694434,-0.1845703125,0.9246826171875,-0.462158203125,8.1787109375,9.3994140625,34.423828125,0,gustav
1772894713.3694434,-0.2156982421875,0.90478515625,-0.3597412109375,5.737304210662842,4.57763671875,32.5927734375,0,gustav
1772894713.4310248,-0.2000732421875,1.021728515625,-0.477783203125,10.620116233825684,-1.7700194120407104,28.259275436401367,0,gustav
1772894713.4905128,-0.2550048828125,0.947998046875,-0.3583984375,7.873534679412842,-5.859374523162842,19.95849609375,0,gustav
1772894713.4905128,-0.2850341796875,0.9488525390625,-0.29052734375,6.408690929412842,-9.521484375,12.878417015075684,0,gustav
1772894713.5476134,-0.23876953125,0.9346923828125,-0.4503173828125,9.3994140625,-14.282225608825684,7.934569835662842,0,gustav
1772894713.6685114,-0.2633056640625,0.9420166015625,-0.31591796875,-0.3662109076976776,-17.08984375,-1.03759765625,0,gustav
1772894713.6685114,-0.27783203125,1.001220703125,-0.37548828125,3.784179449081421,-16.66259765625,-11.718749046325684,0,gustav
1772894713.6685114,-0.2786865234375,1.0706787109375,-0.4383544921875,-0.3662109076976776,-20.751951217651367,-30.883787155151367,0,gustav
1772894713.7912524,-0.243408203125,1.0953369140625,-0.376220703125,-2.50244140625,-25.146482467651367,-58.288570404052734,0,gustav
1772894713.7912524,-0.1744384765625,1.2000732421875,-0.4864501953125,0.9765624403953552,-28.381345748901367,-81.84813690185547,0,gustav
1772894713.7912524,-0.083740234375,1.4527587890625,-0.5965576171875,3.051757574081421,-40.527339935302734,-125.79344940185547,0,gustav
1772894713.8516011,-0.0621337890625,1.4212646484375,-0.443359375,21.545408248901367,-59.265132904052734,-185.24168395996094,0,gustav
1772894713.9121287,0.0557861328125,1.2679443359375,-0.4168701171875,32.40966796875,-64.0869140625,-205.99363708496094,0,gustav
1772894714.0243804,0.1480712890625,0.8160400390625,-0.3505859375,-1.2817381620407104,-68.4814453125,-204.58982849121094,0,gustav
1772894714.0848658,0.2650146484375,0.727294921875,-0.1314697265625,-19.71435546875,-60.913082122802734,-205.07810974121094,0,gustav
1772894714.0848658,0.374755859375,0.67236328125,-0.371337890625,7.751464366912842,-65.7958984375,-180.72508239746094,0,gustav
1772894714.0929205,0.5220947265625,0.602294921875,-0.1234130859375,-19.34814453125,-69.15283203125,-182.92234802246094,0,gustav
1772894714.1508682,0.6593017578125,0.3985595703125,-0.10107421875,-27.893064498901367,-67.5048828125,-163.02488708496094,0,gustav
1772894714.2090182,0.660400390625,0.219482421875,-0.1302490234375,-10.009765625,-59.570308685302734,-148.8037109375,0,gustav
1772894714.2090182,0.84814453125,0.2208251953125,-0.0906982421875,-28.076169967651367,-73.66943359375,-147.4609375,0,gustav
1772894714.3318768,0.7064208984375,0.0169677734375,0.0709228515625,-13.732909202575684,-67.68798828125,-132.6904296875,0,gustav
1772894714.3873208,0.9090576171875,-0.01416015625,0.031005859375,-23.010251998901367,-68.359375,-118.04198455810547,0,gustav
1772894714.3873208,0.8487548828125,-0.2022705078125,0.1773681640625,-39.00146484375,-70.4345703125,-121.09374237060547,0,gustav
1772894714.3873208,0.8914794921875,-0.34912109375,0.157958984375,-8.9111328125,-56.884761810302734,-114.80712127685547,0,gustav
1772894714.4482968,0.917724609375,-0.2716064453125,0.3709716796875,-36.7431640625,-56.518550872802734,-102.60009002685547,0,gustav
1772894714.4482968,0.892578125,-0.22216796875,0.4271240234375,-14.343260765075684,-32.470703125,-84.41161346435547,0,gustav
1772894714.5129702,0.916748046875,-0.37451171875,0.3045654296875,-5.615233898162842,-15.319823265075684,-42.236324310302734,0,gustav
1772894714.631648,0.821533203125,-0.3031005859375,0.3201904296875,-0.6103515625,-2.685546636581421,-12.512206077575684,0,gustav
1772894714.631648,0.946533203125,-0.4027099609375,0.3309326171875,11.596678733825684,1.3427733182907104,5.859374523162842,0,gustav
1772894714.631648,0.9403076171875,-0.3575439453125,0.2921142578125,19.83642578125,2.50244140625,10.620116233825684,0,gustav
1772894714.6903183,0.9940185546875,-0.3511962890625,0.3060302734375,8.30078125,3.356933355331421,16.357421875,0,gustav
1772894714.6903183,0.9144287109375,-0.3326416015625,0.263427734375,10.681151390075684,5.554198741912842,19.71435546875,0,gustav
1772894714.75009,0.969482421875,-0.28369140625,0.2987060546875,17.08984375,9.8876953125,28.381345748901367,0,gustav
1772894714.9271827,0.904541015625,-0.2828369140625,0.273681640625,23.620603561401367,16.7236328125,37.353515625,0,gustav
1772894714.9271827,0.9080810546875,-0.2205810546875,0.246826171875,37.78076171875,28.564451217651367,56.884761810302734,0,gustav
1772894714.9271827,0.8834228515625,-0.28271484375,0.240478515625,36.62109375,37.41455078125,77.45361328125,0,gustav
1772894714.9271827,0.8548583984375,-0.2347412109375,0.1864013671875,26.916501998901367,43.762203216552734,99.60936737060547,0,gustav
1772894715.1121137,0.9429931640625,-0.1214599609375,0.1068115234375,15.136717796325684,47.546382904052734,128.35693359375,0,gustav
1772894715.1121137,0.8944091796875,-0.0098876953125,0.0858154296875,11.657713890075684,46.020503997802734,132.32421875,0,gustav
1772894715.1121137,0.8873291015625,0.20849609375,-0.0186767578125,20.874021530151367,47.180171966552734,138.61083984375,0,gustav
1772894715.1121137,0.956298828125,0.26171875,-0.0888671875,1.5869139432907104,47.302242279052734,128.0517578125,0,gustav
1772894715.2283828,0.824951171875,0.448486328125,-0.0745849609375,20.690916061401367,47.546382904052734,117.18749237060547,0,gustav
1772894715.2283828,0.9427490234375,0.5499267578125,-0.228271484375,8.7890625,36.07177734375,106.75048065185547,0,gustav
1772894715.2283828,0.7283935546875,0.53759765625,-0.0479736328125,-0.7934569716453552,35.64453125,103.33251190185547,0,gustav
1772894715.3460324,0.77001953125,0.693115234375,-0.1864013671875,-11.291502952575684,35.09521484375,100.46385955810547,0,gustav
1772894715.4101946,0.718505859375,0.6563720703125,-0.215576171875,-9.033203125,25.390623092651367,92.46825408935547,0,gustav
1772894715.4101946,0.5576171875,0.647216796875,-0.1502685546875,-6.835937023162842,30.578611373901367,95.21483612060547,0,gustav
1772894715.4101946,0.5589599609375,0.7445068359375,-0.261962890625,-5.126952648162842,27.038572311401367,91.85790252685547,0,gustav
1772894715.4715455,0.4351806640625,0.7794189453125,-0.24267578125,9.46044921875,26.794431686401367,97.90038299560547,0,gustav
1772894715.4725983,0.48974609375,0.87353515625,-0.2728271484375,18.61572265625,20.629880905151367,92.40721893310547,0,gustav
1772894715.5324664,0.3330078125,0.8624267578125,-0.242919921875,27.404783248901367,18.49365234375,92.16307830810547,0,gustav
1772894715.6515608,0.393798828125,1.0682373046875,-0.2650146484375,3.540038824081421,15.563963890075684,77.2705078125,0,gustav
1772894715.6515608,0.288818359375,0.9361572265625,-0.2305908203125,-8.48388671875,13.183592796325684,67.7490234375,0,gustav
1772894715.6515608,0.1693115234375,0.896484375,-0.18994140625,-24.597166061401367,16.9677734375,62.744136810302734,0,gustav
1772894715.7104652,0.236083984375,0.996337890625,-0.334228515625,-30.090330123901367,22.827146530151367,50.964351654052734,0,gustav
1772894715.7104652,0.1605224609375,0.863525390625,-0.2911376953125,-12.878417015075684,25.756834030151367,52.124019622802734,0,gustav
1772894715.7711413,0.232421875,0.9378662109375,-0.2423095703125,-12.390135765075684,32.16552734375,50.659175872802734,0,gustav
1772894715.9516037,0.1497802734375,0.839599609375,-0.3125,13.671874046325684,31.799314498901367,61.462398529052734,0,gustav
1772894715.952418,0.1904296875,1.03173828125,-0.34130859375,2.25830078125,36.19384765625,60.119625091552734,0,gustav
1772894715.9530816,0.1243896484375,0.8941650390625,-0.315673828125,17.63916015625,27.282712936401367,66.650390625,0,gustav
1772894716.012113,0.001708984375,0.9046630859375,-0.1884765625,-1.7700194120407104,29.357908248901367,69.51904296875,0,gustav
1772894716.012113,-0.1156005859375,0.946044921875,-0.3297119140625,-14.282225608825684,17.76123046875,58.837886810302734,0,gustav
1772894716.012113,-0.157958984375,0.9639892578125,-0.281494140625,-18.5546875,12.329100608825684,51.696773529052734,0,gustav
1772894716.0710053,-0.1363525390625,1.0491943359375,-0.4027099609375,-1.7700194120407104,6.042479991912842,50.415035247802734,0,gustav
1772894716.129417,-0.1595458984375,0.922119140625,-0.31640625,-9.27734375,3.479003667831421,45.959468841552734,0,gustav
1772894716.129417,-0.1656494140625,0.9212646484375,-0.306640625,6.591796398162842,5.065917491912842,49.133296966552734,0,gustav
1772894716.191803,-0.1744384765625,1.0423583984375,-0.3260498046875,6.286620616912842,11.047362327575684,46.508785247802734,0,gustav
1772894716.2444217,-0.23486328125,1.010009765625,-0.36474609375,10.681151390075684,4.7607421875,35.58349609375,0,gustav
1772894716.252702,-0.27783203125,1.053466796875,-0.283203125,0.6103515625,4.7607421875,25.390623092651367,0,gustav
1772894716.308832,-0.2503662109375,1.1680908203125,-0.3515625,-1.7700194120407104,-0.4272460639476776,-3.295898199081421,0,gustav
1772894716.4253993,-0.33203125,1.006591796875,-0.3404541015625,-5.249022960662842,-4.150390625,-23.681638717651367,0,gustav
1772894716.4921453,-0.26904296875,1.026123046875,-0.34619140625,-5.371093273162842,-8.544921875,-40.344234466552734,0,gustav
1772894716.493092,-0.2623291015625,1.0111083984375,-0.34521484375,-11.901854515075684,-8.48388671875,-57.556148529052734,0,gustav
1772894716.4938507,-0.223388671875,1.008544921875,-0.3814697265625,0.4882812201976776,-13.122557640075684,-66.40625,0,gustav
1772894716.4951828,-0.16845703125,1.1844482421875,-0.386962890625,-0.2441406100988388,-19.71435546875,-89.96581268310547,0,gustav
1772894716.6122036,-0.124755859375,1.17822265625,-0.433837890625,12.634276390075684,-27.038572311401367,-114.74608612060547,0,gustav
1772894716.6122036,-0.0692138671875,1.1893310546875,-0.388671875,17.02880859375,-30.761716842651367,-136.04736328125,0,gustav
1772894716.6131105,0.059814453125,1.1964111328125,-0.4400634765625,13.000487327575684,-36.07177734375,-153.80859375,0,gustav
1772894716.67105,0.1739501953125,1.11669921875,-0.37744140625,2.01416015625,-45.898433685302734,-165.64939880371094,0,gustav
1772894716.728088,0.21240234375,0.93798828125,-0.2318115234375,-7.995604991912842,-49.926753997802734,-175.29295349121094,0,gustav
1772894716.728088,0.3961181640625,1.011474609375,-0.3828125,2.38037109375,-60.180660247802734,-171.99705505371094,0,gustav
1772894716.7927332,0.4130859375,0.66259765625,-0.208984375,-20.080564498901367,-64.63623046875,-179.56541442871094,0,gustav
1772894716.8517034,0.4326171875,0.5792236328125,-0.166259765625,-8.6669921875,-59.814449310302734,-162.04832458496094,0,gustav
1772894716.8517034,0.6075439453125,0.5567626953125,-0.272705078125,-12.207030296325684,-62.744136810302734,-156.005859375,0,gustav
1772894716.9707582,0.5625,0.4010009765625,-0.067138671875,-11.047362327575684,-57.434078216552734,-149.23095703125,0,gustav
1772894716.9707582,0.7120361328125,0.3865966796875,-0.170166015625,13.610838890075684,-50.231929779052734,-143.12744140625,0,gustav
1772894716.9735048,0.7845458984375,0.323486328125,-0.1148681640625,6.591796398162842,-52.429195404052734,-132.080078125,0,gustav
1772894717.0254614,0.730712890625,0.23388671875,-0.0263671875,-5.126952648162842,-54.992671966552734,-127.19725799560547,0,gustav
1772894717.0897593,0.929931640625,0.1490478515625,0.0087890625,8.60595703125,-51.757808685302734,-114.44091033935547,0,gustav
1772894717.0897593,0.96875,-0.0181884765625,0.0106201171875,-26.062009811401367,-55.114742279052734,-130.2490234375,0,gustav
1772894717.2124162,0.8536376953125,-0.0289306640625,0.18603515625,-38.0859375,-51.147457122802734,-127.80760955810547,0,gustav
1772894717.2124162,0.942138671875,-0.1356201171875,0.1170654296875,-34.85107421875,-51.025386810302734,-119.14061737060547,0,gustav
1772894717.2124162,0.8043212890625,-0.103515625,0.1182861328125,-77.20947265625,-49.926753997802734,-110.35155487060547,0,gustav
1772894717.2702785,0.830078125,-0.194580078125,0.2838134765625,-31.738279342651367,-24.658201217651367,-73.3642578125,0,gustav
1772894717.3308704,0.90185546875,-0.216064453125,0.2584228515625,-31.677244186401367,-16.357421875,-35.82763671875,0,gustav
1772894717.3308704,0.9129638671875,-0.24365234375,0.2822265625,25.085447311401367,-8.1787109375,-8.1787109375,0,gustav
1772894717.389807,0.9610595703125,-0.41357421875,0.2564697265625,28.869626998901367,0.3662109076976776,7.507323741912842,0,gustav
1772894717.4508014,0.98291015625,-0.3341064453125,0.2772216796875,27.221677780151367,2.3193359375,12.695311546325684,0,gustav
1772894717.4508014,0.984375,-0.3284912109375,0.27197265625,32.89794921875,3.295898199081421,16.05224609375,0,gustav
1772894717.5138688,0.9859619140625,-0.3177490234375,0.212158203125,15.808104515075684,5.310058116912842,20.080564498901367,0,gustav
1772894717.6319273,0.955322265625,-0.2427978515625,0.2156982421875,6.469726085662842,6.225585460662842,23.986814498901367,0,gustav
1772894717.691728,0.9459228515625,-0.2039794921875,0.21435546875,4.638671875,10.803221702575684,35.7666015625,0,gustav
1772894717.7504241,0.9478759765625,-0.2218017578125,0.1981201171875,1.0986328125,12.329100608825684,45.837398529052734,0,gustav
1772894717.7504241,0.91943359375,-0.14990234375,0.17919921875,0.2441406100988388,16.4794921875,58.593746185302734,0,gustav
1772894717.7504241,0.92431640625,-0.1416015625,0.172119140625,11.596678733825684,19.34814453125,70.3125,0,gustav
1772894717.7504241,0.904296875,-0.0960693359375,0.1512451171875,15.747069358825684,20.996091842651367,83.19091033935547,0,gustav
1772894717.8123922,0.873779296875,-0.0550537109375,0.1434326171875,19.59228515625,25.756834030151367,97.53417205810547,0,gustav
1772894717.8123922,0.849853515625,-0.0106201171875,0.1187744140625,23.803709030151367,32.71484375,110.04637908935547,0,gustav
1772894717.931931,0.805419921875,0.1031494140625,0.104736328125,22.338865280151367,39.36767578125,121.76512908935547,0,gustav
1772894717.931931,0.9183349609375,0.1937255859375,0.04833984375,20.080564498901367,41.503902435302734,120.84960174560547,0,gustav
1772894717.9355292,0.8284912109375,0.2822265625,0.01611328125,23.010251998901367,38.39111328125,125.61034393310547,0,gustav
1772894717.9915957,0.908203125,0.3780517578125,-0.002685546875,-0.30517578125,41.381832122802734,121.58202362060547,0,gustav
1772894718.1677601,0.8341064453125,0.487060546875,-0.0277099609375,-7.385253429412842,38.75732421875,120.42235565185547,0,gustav
1772894718.1677601,0.8876953125,0.5665283203125,-0.087890625,-22.766111373901367,38.39111328125,116.82128143310547,0,gustav
1772894718.1677601,0.757080078125,0.600341796875,-0.1103515625,-25.512693405151367,34.423828125,110.04637908935547,0,gustav
1772894718.175206,0.84375,0.8101806640625,-0.1783447265625,-11.779784202575684,31.555173873901367,107.36083221435547,0,gustav
1772894718.2292101,0.578857421875,0.7569580078125,-0.1019287109375,-9.1552734375,24.475095748901367,87.40233612060547,0,gustav
1772894718.2292101,0.6231689453125,0.810546875,-0.2169189453125,-7.751464366912842,21.240232467651367,78.91845703125,0,gustav
1772894718.2916074,0.5106201171875,0.867919921875,-0.223388671875,-9.82666015625,19.71435546875,74.8291015625,0,gustav
1772894718.3510902,0.572998046875,0.9227294921875,-0.1978759765625,-29.785154342651367,18.06640625,57.800289154052734,0,gustav
1772894718.3510902,0.4642333984375,0.9405517578125,-0.21875,0.8544921278953552,12.878417015075684,53.833003997802734,0,gustav
1772894718.4709196,0.2808837890625,0.725341796875,-0.2008056640625,13.977049827575684,9.3994140625,64.94140625,0,gustav
1772894718.4709196,0.30810546875,0.7978515625,-0.2506103515625,-5.432128429412842,20.263669967651367,63.537593841552734,0,gustav
1772894718.4709196,0.2423095703125,0.7685546875,-0.2308349609375,-6.896972179412842,26.428220748901367,67.81005859375,0,gustav
1772894718.5301824,0.296142578125,0.8966064453125,-0.23388671875,-4.69970703125,33.26416015625,69.64111328125,0,gustav
1772894718.5879536,0.2047119140625,0.856201171875,-0.2529296875,-0.8544921278953552,35.46142578125,75.5615234375,0,gustav
1772894718.6506903,0.2252197265625,1.021484375,-0.25830078125,-10.070799827575684,40.649410247802734,74.462890625,0,gustav
1772894718.6506903,0.16259765625,0.9571533203125,-0.308349609375,-19.71435546875,37.7197265625,74.76806640625,0,gustav
1772894718.772417,0.104248046875,1.00927734375,-0.307373046875,-24.353025436401367,38.75732421875,72.1435546875,0,gustav
1772894718.772417,0.1051025390625,1.095947265625,-0.3916015625,-16.05224609375,32.53173828125,63.964839935302734,0,gustav
1772894718.772417,-0.0418701171875,0.913818359375,-0.3187255859375,-12.634276390075684,28.198240280151367,63.842769622802734,0,gustav
1772894718.8909929,-0.013916015625,1.060791015625,-0.365966796875,-11.840819358825684,29.174802780151367,50.231929779052734,0,gustav
1772894718.8909929,-0.1058349609375,0.9476318359375,-0.4014892578125,6.713866710662842,20.690916061401367,45.837398529052734,0,gustav
1772894718.8947282,-0.10595703125,0.9703369140625,-0.3289794921875,-5.371093273162842,19.47021484375,37.59765625,0,gustav
1772894719.012472,-0.1507568359375,0.956298828125,-0.3494873046875,3.479003667831421,14.038084983825684,32.2265625,0,gustav
1772894719.0136883,-0.123291015625,1.0645751953125,-0.4185791015625,-5.737304210662842,11.779784202575684,20.568845748901367,0,gustav
1772894719.0136883,-0.1622314453125,0.9869384765625,-0.38330078125,-1.4648436307907104,5.126952648162842,11.657713890075684,0,gustav
1772894719.0686302,-0.1470947265625,1.0545654296875,-0.3587646484375,-1.2817381620407104,0.30517578125,-1.5869139432907104,0,gustav
1772894719.0686302,-0.1607666015625,1.0885009765625,-0.4385986328125,-1.4038084745407104,-3.173827886581421,-15.686034202575684,0,gustav
1772894719.1245985,-0.1636962890625,1.0853271484375,-0.41650390625,1.9531248807907104,-12.023924827575684,-37.04833984375,0,gustav
1772894719.1845677,-0.1175537109375,1.1566162109375,-0.4259033203125,-4.2724609375,-18.6767578125,-64.88037109375,0,gustav
1772894719.1926227,-0.07958984375,1.1776123046875,-0.48583984375,-4.21142578125,-25.085447311401367,-92.83446502685547,0,gustav
1772894719.3687122,-0.0570068359375,1.184326171875,-0.426513671875,-7.019042491912842,-30.578611373901367,-113.83055877685547,0,gustav
1772894719.3687122,0.0711669921875,1.1912841796875,-0.47021484375,-10.437010765075684,-40.893550872802734,-131.2255859375,0,gustav
1772894719.3687122,0.1490478515625,1.117919921875,-0.39501953125,-4.82177734375,-53.710933685302734,-149.0478515625,0,gustav
1772894719.4304998,0.2396240234375,0.999755859375,-0.40087890625,4.8828125,-63.476558685302734,-152.7099609375,0,gustav
1772894719.4304998,0.3077392578125,0.8841552734375,-0.3233642578125,-12.573241233825684,-61.950679779052734,-160.58349609375,0,gustav
1772894719.4304998,0.41650390625,0.8223876953125,-0.3636474609375,4.45556640625,-64.39208984375,-159.97314453125,0,gustav
1772894719.5513885,0.427490234375,0.6243896484375,-0.2232666015625,-8.36181640625,-61.645503997802734,-160.76658630371094,0,gustav
1772894719.5513885,0.50927734375,0.5958251953125,-0.2156982421875,-1.7089842557907104,-58.349605560302734,-154.47998046875,0,gustav
1772894719.5513885,0.7451171875,0.6280517578125,-0.3428955078125,-2.13623046875,-66.89453125,-152.40478515625,0,gustav
1772894719.612309,0.63916015625,0.34765625,-0.0389404296875,-13.366698265075684,-72.08251953125,-152.2216796875,0,gustav
1772894719.612309,0.6968994140625,0.4178466796875,-0.1495361328125,5.432128429412842,-58.288570404052734,-134.6435546875,0,gustav
1772894719.669317,0.9588623046875,0.2479248046875,-0.2303466796875,2.197265625,-74.27978515625,-133.30078125,0,gustav
1772894719.7304728,0.512451171875,0.1142578125,0.10205078125,-22.827146530151367,-69.82421875,-124.14550018310547,0,gustav
1772894719.7304728,0.821533203125,0.2100830078125,-0.0830078125,2.868652105331421,-44.677730560302734,-100.89110565185547,0,gustav
1772894719.7925444,0.78515625,0.12451171875,0.03173828125,-61.401363372802734,-55.786128997802734,-108.58153533935547,0,gustav
1772894719.9124177,0.897705078125,-0.0716552734375,0.0364990234375,-3.845214605331421,-36.43798828125,-76.72119140625,0,gustav
1772894719.9124177,1.0250244140625,0.009033203125,0.1396484375,-52.490230560302734,-63.781734466552734,-88.01268768310547,0,gustav
1772894719.9124177,0.875732421875,-0.0203857421875,0.2569580078125,-5.432128429412842,-56.213375091552734,-95.21483612060547,0,gustav
1772894719.9699695,0.9852294921875,-0.211181640625,0.11279296875,7.263183116912842,-39.306640625,-84.83885955810547,0,gustav
1772894719.9699695,0.8173828125,-0.13232421875,0.3248291015625,-33.14208984375,-43.457027435302734,-78.30810546875,0,gustav
1772894720.031492,0.8829345703125,-0.370849609375,0.3243408203125,80.50536346435547,-10.009765625,-44.799800872802734,0,gustav
1772894720.0898392,0.90625,-0.21142578125,0.226806640625,14.892577171325684,-11.413573265075684,-15.747069358825684,0,gustav
1772894720.150572,0.9559326171875,-0.438720703125,0.3173828125,61.706539154052734,2.50244140625,-7.324218273162842,0,gustav
1772894720.1529098,0.9986572265625,-0.33544921875,0.32763671875,9.27734375,3.784179449081421,-7.385253429412842,0,gustav
1772894720.2708066,1.0,-0.418701171875,0.1917724609375,9.8876953125,3.540038824081421,-3.540038824081421,0,gustav
1772894720.2708066,0.9737548828125,-0.247314453125,0.328857421875,-23.620603561401367,2.3193359375,-1.5869139432907104,0,gustav
1772894720.2735248,0.92822265625,-0.3319091796875,0.1826171875,-1.3427733182907104,7.019042491912842,5.920409679412842,0,gustav
1772894720.4506238,0.9202880859375,-0.310791015625,0.2200927734375,-10.375975608825684,11.657713890075684,20.141599655151367,0,gustav
1772894720.4506238,0.9273681640625,-0.26318359375,0.208251953125,-5.554198741912842,17.02880859375,29.602048873901367,0,gustav
1772894720.4506238,0.9208984375,-0.278076171875,0.1737060546875,7.812499523162842,22.888181686401367,45.715328216552734,0,gustav
1772894720.5110953,0.9422607421875,-0.1959228515625,0.1639404296875,16.78466796875,26.000974655151367,63.415523529052734,0,gustav
1772894720.5110953,0.8358154296875,-0.2349853515625,0.1898193359375,5.249022960662842,31.982419967651367,117.55370330810547,0,gustav
1772894720.5709634,0.90478515625,-0.132080078125,0.109375,30.212400436401367,35.400390625,131.9580078125,0,gustav
1772894720.6311853,0.89208984375,0.02099609375,0.0689697265625,6.469726085662842,37.29248046875,132.62939453125,0,gustav
1772894720.6311853,1.0469970703125,0.1297607421875,-0.0206298828125,4.57763671875,43.762203216552734,119.87303924560547,0,gustav
1772894720.812594,0.8861083984375,0.2216796875,0.055419921875,3.295898199081421,45.227046966552734,106.99462127685547,0,gustav
1772894720.812594,0.917236328125,0.36669921875,-0.0777587890625,8.60595703125,46.936031341552734,110.22948455810547,0,gustav
1772894720.812594,0.847900390625,0.3818359375,-0.0706787109375,-8.97216796875,36.865234375,106.62841033935547,0,gustav
1772894720.8152406,0.8248291015625,0.4715576171875,-0.0960693359375,-13.305663108825684,39.4287109375,111.32811737060547,0,gustav
1772894720.8688629,0.7430419921875,0.6575927734375,-0.1868896484375,-20.01953125,30.273435592651367,104.18700408935547,0,gustav
1772894720.9905736,0.7718505859375,0.6876220703125,-0.1944580078125,-26.184080123901367,20.446775436401367,87.89061737060547,0,gustav
1772894720.9905736,0.6009521484375,0.6807861328125,-0.1806640625,-1.4648436307907104,18.98193359375,87.82958221435547,0,gustav
1772894720.9905736,0.536376953125,0.7381591796875,-0.2274169921875,9.6435546875,21.545408248901367,85.75438690185547,0,gustav
1772894721.050889,0.5142822265625,0.742919921875,-0.218994140625,7.385253429412842,23.986814498901367,79.04052734375,0,gustav
1772894721.050889,0.447509765625,0.7313232421875,-0.1429443359375,8.11767578125,32.8369140625,79.89501953125,0,gustav
1772894721.167978,0.4365234375,0.85009765625,-0.233154296875,-9.521484375,47.302242279052734,74.52392578125,0,gustav
1772894721.2302809,0.443115234375,0.9237060546875,-0.241943359375,-19.287109375,51.269527435302734,61.767574310302734,0,gustav
1772894721.2302809,0.360595703125,0.86474609375,-0.222412109375,-10.192870140075684,52.490230560302734,52.429195404052734,0,gustav
1772894721.2302809,0.3980712890625,0.9609375,-0.3258056640625,-4.8828125,52.551265716552734,44.677730560302734,0,gustav
1772894721.2906215,0.410888671875,0.9554443359375,-0.3804931640625,14.953612327575684,42.480464935302734,41.503902435302734,0,gustav
1772894721.3510973,0.315673828125,0.8536376953125,-0.2802734375,23.803709030151367,40.710445404052734,42.297359466552734,0,gustav
1772894721.3510973,0.3529052734375,0.906005859375,-0.373046875,25.268552780151367,35.0341796875,48.645015716552734,0,gustav
1772894721.4105039,0.279296875,0.907958984375,-0.3597412109375,8.4228515625,32.470703125,52.124019622802734,0,gustav
1772894721.524466,0.2205810546875,0.83349609375,-0.2947998046875,-14.343260765075684,32.65380859375,55.114742279052734,0,gustav
1772894721.5331738,0.1292724609375,0.823974609375,-0.3369140625,-15.319823265075684,34.11865234375,63.049312591552734,0,gustav
1772894721.5331738,0.1009521484375,0.90234375,-0.42724609375,-15.563963890075684,30.578611373901367,62.255855560302734,0,gustav
1772894721.5903773,0.05029296875,0.9251708984375,-0.351318359375,-4.82177734375,28.015134811401367,67.44384765625,0,gustav
1772894721.5903773,0.0374755859375,1.02587890625,-0.4095458984375,23.376462936401367,16.845703125,64.0869140625,0,gustav
1772894721.5903773,-0.02197265625,0.9661865234375,-0.388671875,18.310546875,9.765625,60.668941497802734,0,gustav
1772894721.652199,-0.005615234375,1.116943359375,-0.3582763671875,14.892577171325684,4.2724609375,47.851558685302734,0,gustav
1772894721.9462543,-0.072265625,1.0435791015625,-0.42236328125,3.967284917831421,-2.01416015625,39.24560546875,0,gustav
1772894721.9462543,-0.0552978515625,1.138671875,-0.40380859375,-10.437010765075684,-9.1552734375,18.49365234375,0,gustav
1772894721.9462543,-0.1300048828125,0.990478515625,-0.3619384765625,-8.97216796875,-12.756346702575684,8.30078125,0,gustav
1772894722.008362,-0.1170654296875,0.9029541015625,-0.3394775390625,-2.50244140625,-13.488768577575684,3.601073980331421,0,gustav
1772894722.008362,-0.0992431640625,0.8897705078125,-0.3416748046875,0.0610351525247097,-5.065917491912842,24.291990280151367,0,gustav
1772894722.008362,-0.129638671875,1.04248046875,-0.37841796875,18.98193359375,-2.746581792831421,23.071287155151367,0,gustav
1772894722.1316965,-0.154541015625,1.095947265625,-0.4254150390625,9.21630859375,-11.840819358825684,5.126952648162842,0,gustav
1772894722.1918693,-0.16015625,1.210693359375,-0.359375,2.624511480331421,-18.798828125,-21.606443405151367,0,gustav
1772894722.1918693,-0.15673828125,1.2662353515625,-0.4478759765625,-12.023924827575684,-28.442380905151367,-62.072750091552734,0,gustav
1772894722.2508447,-0.1287841796875,1.22900390625,-0.3856201171875,-10.803221702575684,-34.5458984375,-92.95653533935547,0,gustav
1772894722.368072,-0.0330810546875,1.205810546875,-0.43701171875,-7.751464366912842,-38.02490234375,-117.67577362060547,0,gustav
1772894722.368072,0.052001953125,1.1658935546875,-0.4593505859375,0.2441406100988388,-41.931148529052734,-134.21630859375,0,gustav
1772894722.368072,0.177734375,1.110595703125,-0.3651123046875,6.103515148162842,-45.654293060302734,-147.216796875,0,gustav
1772894722.3747437,0.2762451171875,1.0120849609375,-0.3758544921875,21.606443405151367,-49.194332122802734,-153.6865234375,0,gustav
1772894722.4912267,0.401611328125,0.8284912109375,-0.1849365234375,-14.160155296325684,-54.199214935302734,-161.49900817871094,0,gustav
1772894722.4929428,0.462646484375,0.67919921875,-0.221923828125,-31.738279342651367,-56.091304779052734,-160.0341796875,0,gustav
1772894722.4929428,0.49853515625,0.630615234375,-0.272216796875,-19.59228515625,-68.84765625,-153.13720703125,0,gustav
1772894722.61281,0.543701171875,0.7330322265625,-0.1700439453125,-18.37158203125,-72.44873046875,-141.90673828125,0,gustav
1772894722.730557,0.763916015625,0.6572265625,-0.17724609375,-12.268065452575684,-80.81053924560547,-151.4892578125,0,gustav
1772894722.730557,0.39892578125,0.097900390625,-0.2503662109375,6.408690929412842,-87.40233612060547,-139.5263671875,0,gustav
1772894722.730557,0.7369384765625,0.3736572265625,0.0330810546875,-18.73779296875,-59.570308685302734,-136.1083984375,0,gustav
1772894722.730557,0.8890380859375,0.313720703125,-0.1761474609375,-29.785154342651367,-60.852046966552734,-156.06689453125,0,gustav
1772894722.7920353,0.895751953125,0.114990234375,0.0655517578125,-44.128414154052734,-54.992671966552734,-113.46434783935547,0,gustav
1772894722.7936764,0.7952880859375,-0.1048583984375,-0.0455322265625,-11.474608421325684,-43.273921966552734,-87.70751190185547,0,gustav
1772894722.8530927,0.9359130859375,0.0355224609375,0.1444091796875,-23.193357467651367,-35.94970703125,-63.110347747802734,0,gustav
1772894722.9061015,0.8792724609375,-0.076171875,0.1326904296875,15.930174827575684,-32.3486328125,-49.133296966552734,0,gustav
1772894722.9061015,0.879638671875,-0.089111328125,0.236328125,48.034664154052734,-22.399900436401367,-27.465818405151367,0,gustav
1772894722.9717925,1.0242919921875,-0.1856689453125,0.20263671875,59.265132904052734,-12.329100608825684,-19.287109375,0,gustav
1772894723.0262392,1.0164794921875,-0.23486328125,0.226318359375,28.320310592651367,-7.019042491912842,-20.385740280151367,0,gustav
1772894723.0262392,1.00341796875,-0.2294921875,0.258056640625,34.1796875,-0.4882812201976776,-14.343260765075684,0,gustav
1772894723.0907216,1.0074462890625,-0.264404296875,0.216552734375,8.4228515625,4.45556640625,-2.25830078125,0,gustav
1772894723.1509228,0.9783935546875,-0.2115478515625,0.1549072265625,-16.357421875,5.981444835662842,14.282225608825684,0,gustav
1772894723.1509228,0.912109375,-0.126708984375,0.133056640625,-4.57763671875,8.056640625,33.0810546875,0,gustav
1772894723.213034,0.9052734375,-0.2027587890625,0.22802734375,24.047849655151367,7.873534679412842,55.419918060302734,0,gustav
1772894723.213034,0.895263671875,-0.1680908203125,0.140869140625,20.507810592651367,13.061522483825684,77.7587890625,0,gustav
1772894723.2703784,0.8892822265625,-0.1673583984375,0.1541748046875,-0.3662109076976776,18.73779296875,103.69872283935547,0,gustav
1772894723.4463935,0.86376953125,-0.09130859375,0.1578369140625,-16.7236328125,23.498533248901367,120.05614471435547,0,gustav
1772894723.5110104,0.8118896484375,-0.018310546875,0.10888671875,-16.845703125,28.137205123901367,138.3056640625,0,gustav
1772894723.5110104,0.6962890625,0.1446533203125,0.0526123046875,-7.812499523162842,38.330078125,154.4189453125,0,gustav
1772894723.5110104,0.8946533203125,0.264892578125,-0.0242919921875,3.906249761581421,35.21728515625,148.0712890625,0,gustav
1772894723.5722697,0.864990234375,0.60107421875,-0.0361328125,17.27294921875,36.7431640625,135.43701171875,0,gustav
1772894723.5722697,0.6998291015625,0.58349609375,-0.0328369140625,12.817381858825684,33.75244140625,135.80322265625,0,gustav
1772894723.5733364,0.6705322265625,0.86328125,-0.023193359375,-16.41845703125,41.503902435302734,127.62450408935547,0,gustav
1772894723.6257303,0.810302734375,0.881591796875,-0.1727294921875,-13.000487327575684,38.818359375,98.93798065185547,0,gustav
1772894723.691666,0.5830078125,0.812744140625,-0.0546875,-28.137205123901367,38.75732421875,95.39794158935547,0,gustav
1772894723.691666,0.55029296875,0.9942626953125,-0.1295166015625,-36.2548828125,37.41455078125,76.416015625,0,gustav
1772894723.8726516,0.5096435546875,0.8870849609375,-0.2840576171875,-6.652831554412842,25.207517623901367,65.185546875,0,gustav
1772894723.8726516,0.3968505859375,0.947265625,-0.141357421875,-20.629880905151367,23.315427780151367,58.166500091552734,0,gustav
1772894723.8726516,0.392333984375,0.8883056640625,-0.2845458984375,-10.864256858825684,18.85986328125,48.034664154052734,0,gustav
1772894723.8746374,0.37939453125,0.876220703125,-0.2523193359375,-4.638671875,12.084959983825684,44.250484466552734,0,gustav
1772894723.9310725,0.3377685546875,0.8775634765625,-0.186767578125,-15.991209983825684,10.314940452575684,45.227046966552734,0,gustav
1772894723.9310725,0.2811279296875,0.8367919921875,-0.293212890625,-8.7890625,7.568358898162842,52.124019622802734,0,gustav
1772894723.991164,0.3167724609375,0.85595703125,-0.262939453125,-18.98193359375,13.122557640075684,51.452632904052734,0,gustav
1772894724.0501072,0.2724609375,0.8038330078125,-0.302490234375,-13.122557640075684,11.779784202575684,59.997554779052734,0,gustav
1772894724.0501072,0.2645263671875,0.8779296875,-0.2899169921875,-11.779784202575684,17.333984375,65.61279296875,0,gustav
1772894724.1123836,0.1484375,0.8677978515625,-0.3167724609375,6.591796398162842,16.78466796875,75.37841796875,0,gustav
1772894724.173251,0.1646728515625,0.9478759765625,-0.369384765625,-1.7700194120407104,18.06640625,75.86669921875,0,gustav
1772894724.173251,0.0838623046875,0.9271240234375,-0.259521484375,-7.080077648162842,15.014647483825684,78.18603515625,0,gustav
1772894724.2321286,0.0501708984375,1.04931640625,-0.3494873046875,1.2817381620407104,16.357421875,76.59912109375,0,gustav
1772894724.2913368,0.010498046875,1.0694580078125,-0.3759765625,-7.751464366912842,9.033203125,63.659664154052734,0,gustav
1772894724.2913368,-0.0751953125,1.009765625,-0.3096923828125,-12.084959983825684,5.798339366912842,59.631343841552734,0,gustav
1772894724.3511713,-0.04541015625,1.08642578125,-0.3514404296875,-3.479003667831421,3.723144292831421,48.889156341552734,0,gustav
1772894724.3511713,-0.078857421875,1.0311279296875,-0.323974609375,-4.0283203125,0.0610351525247097,39.97802734375,0,gustav
1772894724.4105675,-0.116943359375,0.869873046875,-0.290283203125,6.713866710662842,-0.1220703050494194,44.494625091552734,0,gustav
1772894724.4706178,-0.18994140625,0.802490234375,-0.213623046875,-3.051757574081421,8.6669921875,52.001949310302734,0,gustav
1772894724.5304863,-0.19287109375,0.8819580078125,-0.2911376953125,2.624511480331421,14.648436546325684,58.715816497802734,0,gustav
1772894724.5304863,-0.2587890625,0.925537109375,-0.2965087890625,-13.854979515075684,13.732909202575684,59.265132904052734,0,gustav
1772894724.591953,-0.301025390625,0.9515380859375,-0.2857666015625,-1.9531248807907104,14.831542015075684,53.771968841552734,0,gustav
1772894724.591953,-0.3221435546875,1.1859130859375,-0.3392333984375,0.0,11.535643577575684,30.395505905151367,0,gustav
1772894724.7126725,-0.3353271484375,1.1373291015625,-0.43359375,2.746581792831421,-3.479003667831421,-3.845214605331421,0,gustav
1772894724.7126725,-0.3497314453125,1.16455078125,-0.3155517578125,-3.723144292831421,-14.160155296325684,-41.381832122802734,0,gustav
1772894724.7126725,-0.3060302734375,1.2333984375,-0.41796875,-10.253905296325684,-20.690916061401367,-79.833984375,0,gustav
1772894724.7697513,-0.2291259765625,1.23876953125,-0.4815673828125,-11.352538108825684,-31.677244186401367,-117.49266815185547,0,gustav
1772894724.830969,-0.1573486328125,1.2122802734375,-0.4107666015625,-7.568358898162842,-35.5224609375,-146.17919921875,0,gustav
1772894724.830969,-0.0814208984375,1.1156005859375,-0.4051513671875,15.502928733825684,-36.68212890625,-155.6396484375,0,gustav
1772894724.8911605,0.0692138671875,1.105224609375,-0.3931884765625,18.73779296875,-34.5458984375,-168.82322692871094,0,gustav
1772894724.9451523,0.1739501953125,0.949462890625,-0.3875732421875,23.803709030151367,-38.0859375,-173.21775817871094,0,gustav
1772894725.0693445,0.26416015625,0.88916015625,-0.218017578125,15.014647483825684,-37.41455078125,-175.96434020996094,0,gustav
1772894725.0693445,0.3392333984375,0.8575439453125,-0.306396484375,15.136717796325684,-37.04833984375,-177.30711364746094,0,gustav
1772894725.0693445,0.466796875,0.7841796875,-0.35498046875,8.72802734375,-42.846675872802734,-179.26023864746094,0,gustav
1772894725.132448,0.5638427734375,0.6566162109375,-0.213134765625,-21.545408248901367,-47.363277435302734,-185.05857849121094,0,gustav
1772894725.132448,0.5845947265625,0.5238037109375,-0.1280517578125,-15.502928733825684,-48.889156341552734,-179.38230895996094,0,gustav
1772894725.2475953,0.7769775390625,0.51904296875,-0.3070068359375,13.427733421325684,-58.898921966552734,-174.68260192871094,0,gustav
1772894725.2536645,0.5906982421875,0.2313232421875,-0.063232421875,-15.869139671325684,-71.77734375,-169.18943786621094,0,gustav
1772894725.2536645,0.663330078125,0.2430419921875,-0.041015625,11.840819358825684,-62.377925872802734,-149.7802734375,0,gustav
1772894725.3109741,0.71337890625,0.0989990234375,-0.065673828125,2.990722417831421,-68.90869140625,-135.8642578125,0,gustav
1772894725.3109741,0.676513671875,0.048095703125,0.097412109375,-0.9765624403953552,-52.001949310302734,-112.54882049560547,0,gustav
1772894725.3713667,0.86181640625,-0.0760498046875,0.1641845703125,5.493163585662842,-45.043941497802734,-76.904296875,0,gustav
1772894725.4250898,0.919677734375,-0.1436767578125,0.186279296875,-20.629880905151367,-38.6962890625,-62.377925872802734,0,gustav
1772894725.4250898,1.0447998046875,-0.1514892578125,0.2811279296875,-36.2548828125,-30.151365280151367,-44.921871185302734,0,gustav
1772894725.4915628,0.9886474609375,-0.209716796875,0.233154296875,-43.090816497802734,-15.869139671325684,-34.66796875,0,gustav
1772894725.5501838,0.9593505859375,-0.198974609375,0.204345703125,-30.578611373901367,-1.7700194120407104,-17.88330078125,0,gustav
1772894725.5501838,0.9359130859375,-0.0789794921875,0.2191162109375,-2.01416015625,-3.662109136581421,-2.868652105331421,0,gustav
1772894725.6709898,0.965576171875,-0.18896484375,0.1865234375,14.404295921325684,-0.54931640625,7.690429210662842,0,gustav
1772894725.6709898,0.993408203125,-0.078857421875,0.2027587890625,20.141599655151367,2.50244140625,11.169432640075684,0,gustav
1772894725.6709898,0.9942626953125,-0.096923828125,0.180419921875,22.033689498901367,4.08935546875,16.9677734375,0,gustav
1772894725.9040906,0.9791259765625,-0.0516357421875,0.1734619140625,13.671874046325684,9.21630859375,25.085447311401367,0,gustav
1772894725.9040906,0.96484375,-0.052978515625,0.19287109375,2.807616949081421,14.343260765075684,33.38623046875,0,gustav
1772894725.9040906,0.916748046875,-0.053466796875,0.1473388671875,3.540038824081421,20.629880905151367,45.471187591552734,0,gustav
1772894725.9040906,0.9290771484375,-0.0146484375,0.123779296875,6.408690929412842,27.099607467651367,60.363765716552734,0,gustav
1772894725.9650867,0.866943359375,0.0869140625,0.069091796875,-7.751464366912842,42.419429779052734,110.77880096435547,0,gustav
1772894726.0314362,0.7669677734375,0.21728515625,0.0150146484375,-12.695311546325684,51.696773529052734,123.16893768310547,0,gustav
1772894726.0314362,0.9407958984375,0.3414306640625,-0.067626953125,-45.532222747802734,59.448238372802734,116.27196502685547,0,gustav
1772894726.1466284,0.843505859375,0.29150390625,-0.174072265625,-57.739253997802734,59.265132904052734,110.77880096435547,0,gustav
1772894726.1466284,0.77294921875,0.6507568359375,-0.0611572265625,-53.649898529052734,71.35009765625,102.72216033935547,0,gustav
1772894726.1466284,0.9530029296875,0.7427978515625,-0.40087890625,-0.2441406100988388,60.119625091552734,89.84374237060547,0,gustav
1772894726.3908265,0.62841796875,0.5296630859375,-0.25,9.94873046875,43.945308685302734,94.72655487060547,0,gustav
1772894726.3908265,0.66064453125,0.677001953125,-0.227294921875,18.85986328125,47.424312591552734,93.74999237060547,0,gustav
1772894726.3908265,0.6224365234375,0.621826171875,-0.35205078125,23.193357467651367,40.161128997802734,91.85790252685547,0,gustav
1772894726.3908265,0.477783203125,0.614013671875,-0.2347412109375,22.949216842651367,47.912593841552734,97.22899627685547,0,gustav
1772894726.4530158,0.2703857421875,0.7957763671875,-0.300537109375,-2.13623046875,35.0341796875,101.01317596435547,0,gustav
1772894726.5692213,0.355712890625,1.0340576171875,-0.441650390625,-22.766111373901367,38.87939453125,91.97997283935547,0,gustav
1772894726.5692213,0.238525390625,0.9588623046875,-0.4398193359375,-11.352538108825684,29.907224655151367,82.15331268310547,0,gustav
1772894726.5692213,0.205322265625,1.068359375,-0.3681640625,-24.108884811401367,31.860349655151367,65.73486328125,0,gustav
1772894726.6923454,0.1566162109375,0.93359375,-0.4080810546875,14.160155296325684,26.794431686401367,58.044429779052734,0,gustav
1772894726.7496576,0.1905517578125,1.02587890625,-0.48291015625,5.737304210662842,27.587888717651367,46.447750091552734,0,gustav
1772894726.8682077,0.098388671875,0.8936767578125,-0.2823486328125,19.6533203125,22.583005905151367,40.283199310302734,0,gustav
1772894726.8682077,0.0614013671875,0.83251953125,-0.2764892578125,22.583005905151367,25.329587936401367,48.950191497802734,0,gustav
1772894726.8682077,0.087158203125,0.8441162109375,-0.410888671875,18.12744140625,25.268552780151367,60.729976654052734,0,gustav
1772894726.874879,-0.005615234375,0.832275390625,-0.3173828125,-6.408690929412842,27.099607467651367,73.3642578125,0,gustav
1772894726.9916365,-0.2132568359375,1.013427734375,-0.4044189453125,-0.4272460639476776,26.062009811401367,86.60887908935547,0,gustav
1772894726.9916365,-0.2740478515625,1.053466796875,-0.358642578125,9.27734375,24.414060592651367,69.580078125,0,gustav
1772894726.9916365,-0.387451171875,1.0391845703125,-0.418701171875,3.295898199081421,20.568845748901367,46.447750091552734,0,gustav
1772894727.05168,-0.333984375,0.9241943359375,-0.3778076171875,-10.314940452575684,8.7890625,26.123044967651367,0,gustav
1772894727.1109097,-0.3343505859375,0.9219970703125,-0.300048828125,-12.451170921325684,-0.54931640625,8.056640625,0,gustav
1772894727.1109097,-0.2933349609375,0.968994140625,-0.4310302734375,4.33349609375,-2.929687261581421,-0.8544921278953552,0,gustav
1772894727.1663167,-0.2490234375,0.987548828125,-0.426025390625,-1.4038084745407104,-8.9111328125,-10.559081077575684,0,gustav
1772894727.232404,-0.2728271484375,0.932861328125,-0.3541259765625,7.873534679412842,-2.563476324081421,-12.390135765075684,0,gustav
1772894727.232404,-0.24658203125,1.00830078125,-0.46728515625,15.380858421325684,-0.8544921278953552,-19.83642578125,0,gustav
1772894727.2918928,-0.26220703125,1.021484375,-0.36474609375,0.9155272841453552,-8.23974609375,-33.447265625,0,gustav
1772894727.4682262,-0.2386474609375,1.14990234375,-0.4520263671875,16.41845703125,-16.17431640625,-55.236812591552734,0,gustav
1772894727.4682262,-0.24951171875,1.2333984375,-0.4598388671875,0.0610351525247097,-28.808591842651367,-93.07860565185547,0,gustav
1772894727.4682262,-0.2003173828125,1.229248046875,-0.5008544921875,18.61572265625,-38.14697265625,-125.85448455810547,0,gustav
1772894727.4746096,-0.167724609375,1.167724609375,-0.403076171875,2.807616949081421,-46.142574310302734,-146.3623046875,0,gustav
1772894727.6509407,0.125,1.1131591796875,-0.4632568359375,36.1328125,-62.133785247802734,-172.24119567871094,0,gustav
1772894727.6509407,0.1885986328125,0.911376953125,-0.13623046875,15.319823265075684,-54.809566497802734,-184.81443786621094,0,gustav
1772894727.6509407,0.4083251953125,0.9703369140625,-0.477294921875,39.24560546875,-50.476070404052734,-182.18992614746094,0,gustav
1772894727.6546714,0.4027099609375,0.7440185546875,-0.2303466796875,-23.925779342651367,-54.809566497802734,-196.10594177246094,0,gustav
1772894727.7133877,0.5186767578125,0.422607421875,-0.27587890625,-1.15966796875,-65.85693359375,-179.74851989746094,0,gustav
1772894727.8327084,0.5511474609375,0.3779296875,0.0501708984375,-30.700681686401367,-63.232418060302734,-173.88914489746094,0,gustav
1772894727.8327084,0.691162109375,0.3258056640625,-0.16162109375,12.145995140075684,-73.66943359375,-153.99169921875,0,gustav
1772894727.833639,0.7659912109375,0.208740234375,0.03466796875,-45.288082122802734,-83.00780487060547,-153.3203125,0,gustav
1772894728.0025752,0.7440185546875,0.15625,0.088134765625,-26.794431686401367,-76.11083984375,-137.8173828125,0,gustav
1772894728.0129914,1.0009765625,0.0504150390625,0.07080078125,-62.988277435302734,-80.01708984375,-151.611328125,0,gustav
1772894728.0668824,0.6011962890625,0.1142578125,0.0924072265625,-19.04296875,-79.1015625,-149.4140625,0,gustav
1772894728.0668824,0.911376953125,-0.19677734375,0.351318359375,19.1650390625,-5.920409679412842,-16.6015625,0,gustav
1772894728.12639,0.9383544921875,-0.269775390625,0.19091796875,13.854979515075684,-8.48388671875,-7.995604991912842,0,gustav
1772894728.12639,1.00927734375,-0.2606201171875,0.3016357421875,19.22607421875,-4.45556640625,9.1552734375,0,gustav
1772894728.191585,1.0816650390625,-0.307861328125,0.2642822265625,-4.8828125,-7.202147960662842,5.493163585662842,0,gustav
1772894728.250666,1.030517578125,-0.2318115234375,0.376953125,-5.798339366912842,-3.417968511581421,17.02880859375,0,gustav
1772894728.250666,0.961181640625,-0.2705078125,0.25732421875,-20.507810592651367,7.751464366912842,25.878904342651367,0,gustav
1772894728.3111346,0.913330078125,-0.14453125,0.33544921875,-6.408690929412842,17.63916015625,41.198726654052734,0,gustav
1772894728.3728642,0.9639892578125,-0.158935546875,0.1905517578125,2.929687261581421,19.47021484375,49.560543060302734,0,gustav
1772894728.3728642,0.8870849609375,-0.0888671875,0.30419921875,26.916501998901367,28.564451217651367,66.83349609375,0,gustav
1772894728.4320207,0.8983154296875,-0.0972900390625,0.1422119140625,26.611326217651367,32.04345703125,77.94189453125,0,gustav
1772894728.5469575,0.784912109375,-0.048095703125,0.12890625,20.935056686401367,40.771480560302734,107.05565643310547,0,gustav
1772894728.5469575,0.8629150390625,0.02734375,0.115966796875,-0.30517578125,43.029781341552734,125.36620330810547,0,gustav
1772894728.5469575,0.8511962890625,0.1383056640625,0.0389404296875,15.808104515075684,41.809078216552734,123.84032440185547,0,gustav
1772894728.5469575,1.010986328125,0.275146484375,0.0238037109375,8.60595703125,46.752925872802734,119.38475799560547,0,gustav
1772894728.609781,0.8472900390625,0.3330078125,0.040771484375,14.465331077575684,54.687496185302734,112.97606658935547,0,gustav
1772894728.733228,0.9140625,0.511962890625,-0.0545654296875,10.742186546325684,52.917476654052734,105.65184783935547,0,gustav
1772894728.733228,0.7423095703125,0.3802490234375,0.0013427734375,28.991697311401367,47.241207122802734,115.84471893310547,0,gustav
1772894728.7922215,0.6876220703125,0.51953125,-0.0330810546875,13.854979515075684,49.987789154052734,122.25341033935547,0,gustav
1772894728.9114583,0.676513671875,0.5113525390625,-0.1436767578125,9.033203125,41.442867279052734,132.568359375,0,gustav
1772894728.9114583,0.6590576171875,0.7908935546875,-0.185791015625,-11.230467796325684,49.865718841552734,128.96728515625,0,gustav
1772894728.914007,0.463623046875,0.7635498046875,-0.0921630859375,-13.183592796325684,38.57421875,124.87792205810547,0,gustav
1772894729.0307717,0.4384765625,0.9334716796875,-0.2003173828125,-26.245115280151367,39.1845703125,123.22997283935547,0,gustav
1772894729.0307717,0.41162109375,0.8927001953125,-0.2900390625,-13.916014671325684,30.578611373901367,111.69432830810547,0,gustav
1772894729.0307717,0.3236083984375,1.0382080078125,-0.2403564453125,-17.39501953125,29.113767623901367,104.43114471435547,0,gustav
1772894729.0911467,0.306884765625,1.0400390625,-0.370849609375,8.1787109375,22.460935592651367,89.17235565185547,0,gustav
1772894729.0911467,0.2210693359375,0.9840087890625,-0.228515625,-4.8828125,24.902341842651367,79.1015625,0,gustav
1772894729.0936177,0.180419921875,0.967529296875,-0.28076171875,0.6103515625,27.648923873901367,75.68359375,0,gustav
1772894729.2714455,0.0872802734375,0.8450927734375,-0.27294921875,9.33837890625,30.700681686401367,80.62743377685547,0,gustav
1772894729.5129488,0.111083984375,1.000732421875,-0.2977294921875,-17.822265625,38.6962890625,73.91357421875,0,gustav
1772894729.5129488,0.0035400390625,0.883544921875,-0.2860107421875,-1.3427733182907104,34.72900390625,82.09227752685547,0,gustav
1772894729.5129488,-0.084716796875,0.900634765625,-0.2225341796875,-16.05224609375,37.109375,83.74022674560547,0,gustav
1772894729.5129488,-0.1378173828125,0.9154052734375,-0.3408203125,-15.747069358825684,36.68212890625,88.68407440185547,0,gustav
1772894729.568865,-0.35888671875,1.0345458984375,-0.3466796875,2.929687261581421,25.024412155151367,80.87157440185547,0,gustav
1772894729.7514126,-0.4451904296875,0.998046875,-0.3253173828125,-5.493163585662842,2.807616949081421,18.6767578125,0,gustav
1772894729.7514126,-0.4420166015625,1.0595703125,-0.358154296875,-12.390135765075684,-5.676269054412842,-6.591796398162842,0,gustav
1772894729.8058531,-0.4466552734375,0.9974365234375,-0.30517578125,-15.991209983825684,-12.145995140075684,-32.77587890625,0,gustav
1772894729.8058531,-0.4140625,1.0260009765625,-0.3427734375,-3.112792730331421,-15.136717796325684,-51.696773529052734,0,gustav
1772894729.8058531,-0.338134765625,1.0172119140625,-0.338623046875,8.97216796875,-22.277830123901367,-81.97020721435547,0,gustav
1772894729.8142653,-0.2880859375,1.042724609375,-0.39794921875,5.920409679412842,-26.428220748901367,-98.44969940185547,0,gustav
1772894729.868388,-0.2518310546875,1.0155029296875,-0.34326171875,-2.624511480331421,-26.123044967651367,-111.14501190185547,0,gustav
1772894729.929945,-0.14453125,1.0189208984375,-0.38818359375,-10.437010765075684,-27.893064498901367,-111.69432830810547,0,gustav
1772894729.929945,0.017333984375,1.3160400390625,-0.5140380859375,-20.080564498901367,-33.75244140625,-130.9814453125,0,gustav
1772894729.9901927,0.087646484375,1.322021484375,-0.4593505859375,-1.8920897245407104,-45.898433685302734,-156.73828125,0,gustav
1772894730.0507083,0.0516357421875,0.980224609375,-0.318603515625,26.123044967651367,-51.940914154052734,-162.84178161621094,0,gustav
1772894730.0507083,0.151123046875,0.9515380859375,-0.41064453125,6.652831554412842,-54.443355560302734,-172.11912536621094,0,gustav
1772894730.1103334,0.229248046875,0.7105712890625,-0.2850341796875,-23.864744186401367,-56.213375091552734,-172.79051208496094,0,gustav
1772894730.168273,0.376708984375,0.79052734375,-0.2747802734375,-10.681151390075684,-53.710933685302734,-170.77635192871094,0,gustav
1772894730.168273,0.6470947265625,0.8671875,-0.5030517578125,-10.925292015075684,-67.2607421875,-172.11912536621094,0,gustav
1772894730.2908974,0.617919921875,0.7230224609375,-0.2027587890625,-46.630855560302734,-79.345703125,-175.41502380371094,0,gustav
1772894730.2908974,0.8746337890625,0.6197509765625,-0.2489013671875,-73.73046875,-87.52440643310547,-190.06346130371094,0,gustav
1772894730.2908974,0.5577392578125,0.38232421875,-0.120361328125,-40.527339935302734,-98.81591033935547,-190.73484802246094,0,gustav
1772894730.3508394,0.741455078125,0.271484375,-0.25439453125,-56.945796966552734,-99.91454315185547,-187.37791442871094,0,gustav
1772894730.3508394,0.4578857421875,0.0352783203125,0.0362548828125,-64.02587890625,-124.81688690185547,-187.56101989746094,0,gustav
1772894730.4095092,0.474365234375,0.0146484375,-0.0196533203125,-6.652831554412842,-81.54296112060547,-153.99169921875,0,gustav
1772894730.4704576,0.7581787109375,-0.103759765625,0.0101318359375,-4.150390625,-81.05467987060547,-131.591796875,0,gustav
1772894730.4704576,0.763916015625,-0.1072998046875,0.14306640625,-33.69140625,-71.044921875,-104.00389862060547,0,gustav
1772894730.6532266,0.899658203125,-0.134521484375,0.3287353515625,49.072261810302734,-41.564937591552734,-52.734371185302734,0,gustav
1772894730.6532266,0.9659423828125,-0.314697265625,0.2088623046875,26.000974655151367,-34.48486328125,-35.64453125,0,gustav
1772894730.6541169,0.9603271484375,-0.3328857421875,0.384521484375,49.133296966552734,-19.59228515625,-29.724119186401367,0,gustav
1772894730.6541169,0.972900390625,-0.4073486328125,0.418212890625,47.546382904052734,-7.873534679412842,-24.536130905151367,0,gustav
1772894730.770896,0.96533203125,-0.38818359375,0.349853515625,30.517576217651367,1.6479490995407104,-12.207030296325684,0,gustav
1772894730.770896,0.91357421875,-0.4132080078125,0.3145751953125,16.41845703125,14.404295921325684,5.249022960662842,0,gustav
1772894730.770896,0.9014892578125,-0.3446044921875,0.299072265625,2.929687261581421,21.484373092651367,26.977537155151367,0,gustav
1772894730.8908112,0.9022216796875,-0.3248291015625,0.1883544921875,5.0048828125,24.597166061401367,50.109859466552734,0,gustav
1772894730.8908112,0.901123046875,-0.3291015625,0.1971435546875,-0.7934569716453552,25.024412155151367,62.255855560302734,0,gustav
1772894730.8930874,0.9100341796875,-0.251953125,0.1666259765625,-3.295898199081421,28.442380905151367,79.7119140625,0,gustav
1772894730.9515028,0.9007568359375,-0.20166015625,0.125,-6.347655773162842,29.113767623901367,96.19139862060547,0,gustav
1772894730.9515028,0.89111328125,-0.1529541015625,0.1328125,-11.413573265075684,32.470703125,115.47850799560547,0,gustav
1772894731.0719063,0.786865234375,-0.0596923828125,0.0723876953125,-13.671874046325684,40.771480560302734,130.79833984375,0,gustav
1772894731.0719063,0.823486328125,0.0362548828125,0.0546875,-12.573241233825684,50.109859466552734,140.13671875,0,gustav
1772894731.1923838,0.8067626953125,0.1668701171875,-0.001708984375,5.737304210662842,59.265132904052734,143.12744140625,0,gustav
1772894731.1923838,0.9039306640625,0.32958984375,-0.0919189453125,18.85986328125,64.75830078125,139.95361328125,0,gustav
1772894731.1923838,0.948486328125,0.4383544921875,-0.1158447265625,18.9208984375,60.913082122802734,126.22069549560547,0,gustav
1772894731.1938674,0.8697509765625,0.577880859375,-0.166259765625,22.155759811401367,65.185546875,115.90575408935547,0,gustav
1772894731.3129096,0.9990234375,0.69140625,-0.27001953125,15.075682640075684,50.659175872802734,95.39794158935547,0,gustav
1772894731.3135536,0.7017822265625,0.6026611328125,-0.1378173828125,9.033203125,46.813961029052734,93.32274627685547,0,gustav
1772894731.3135536,0.699462890625,0.7359619140625,-0.248779296875,-3.173827886581421,47.424312591552734,89.17235565185547,0,gustav
1772894731.3720539,0.5557861328125,0.6468505859375,-0.2479248046875,-0.30517578125,40.344234466552734,89.41649627685547,0,gustav
1772894731.3720539,0.4254150390625,0.6495361328125,-0.2171630859375,4.5166015625,48.400875091552734,95.21483612060547,0,gustav
1772894731.492449,0.552001953125,0.771240234375,-0.363037109375,12.756346702575684,42.480464935302734,90.69823455810547,0,gustav
1772894731.492449,0.3736572265625,0.75244140625,-0.2584228515625,20.507810592651367,43.029781341552734,96.19139862060547,0,gustav
1772894731.492449,0.4049072265625,0.902099609375,-0.331787109375,12.145995140075684,38.4521484375,92.34618377685547,0,gustav
1772894731.6702466,0.3438720703125,0.9619140625,-0.3154296875,2.563476324081421,32.2265625,86.54784393310547,0,gustav
1772894731.6702466,0.3187255859375,0.9990234375,-0.3216552734375,-11.718749046325684,27.221677780151367,76.66015625,0,gustav
1772894731.6725962,0.2208251953125,0.944580078125,-0.3134765625,-9.21630859375,22.705076217651367,70.61767578125,0,gustav
1772894731.6725962,0.1610107421875,0.957763671875,-0.3646240234375,-6.835937023162842,24.597166061401367,65.24658203125,0,gustav
1772894731.7316535,0.15869140625,0.9249267578125,-0.35546875,-9.09423828125,25.573728561401367,61.096187591552734,0,gustav
1772894731.7316535,0.0830078125,0.825439453125,-0.3082275390625,3.051757574081421,29.602048873901367,66.95556640625,0,gustav
1772894731.9107115,0.101806640625,0.9425048828125,-0.3897705078125,15.869139671325684,31.311033248901367,72.509765625,0,gustav
1772894731.9131553,0.03271484375,0.8740234375,-0.354248046875,0.30517578125,32.1044921875,78.79638671875,0,gustav
1772894731.9709232,-0.005859375,0.9500732421875,-0.35302734375,7.263183116912842,30.029294967651367,81.48192596435547,0,gustav
1772894731.9709232,-0.08447265625,0.960693359375,-0.349609375,-0.7934569716453552,27.099607467651367,77.0263671875,0,gustav
1772894731.9709232,-0.1490478515625,1.0228271484375,-0.38720703125,9.765625,22.827146530151367,78.55224609375,0,gustav
1772894731.9709232,-0.1749267578125,1.106201171875,-0.3763427734375,-1.8920897245407104,13.244627952575684,61.157222747802734,0,gustav
1772894732.0302098,-0.2403564453125,1.0191650390625,-0.36328125,10.681151390075684,5.0048828125,50.109859466552734,0,gustav
1772894732.0902405,-0.2908935546875,0.88427734375,-0.3404541015625,13.122557640075684,0.4882812201976776,42.663570404052734,0,gustav
1772894732.093219,-0.2901611328125,0.8438720703125,-0.294189453125,4.0283203125,4.5166015625,44.494625091552734,0,gustav
1772894732.1512835,-0.282958984375,0.69677734375,-0.335205078125,0.4272460639476776,4.7607421875,56.823726654052734,0,gustav
1772894732.324962,-0.361572265625,0.7978515625,-0.2772216796875,-4.57763671875,9.033203125,68.66455078125,0,gustav
1772894732.386452,-0.3743896484375,0.919921875,-0.414794921875,-4.69970703125,4.8828125,72.69287109375,0,gustav
1772894732.4504733,-0.4605712890625,1.1171875,-0.2762451171875,-22.827146530151367,-1.4648436307907104,53.894039154052734,0,gustav
1772894732.4504733,-0.4803466796875,1.0274658203125,-0.40625,-11.474608421325684,-6.347655773162842,25.756834030151367,0,gustav
1772894732.512226,-0.5052490234375,1.0081787109375,-0.3699951171875,6.103515148162842,-23.315427780151367,-49.194332122802734,0,gustav
1772894732.5130937,-0.4901123046875,1.015380859375,-0.3699951171875,8.4228515625,-27.221677780151367,-81.23778533935547,0,gustav
1772894732.5136468,-0.305908203125,1.3262939453125,-0.5606689453125,-3.723144292831421,-40.649410247802734,-168.15184020996094,0,gustav
1772894732.5153978,-0.281494140625,1.337646484375,-0.4652099609375,9.8876953125,-39.6728515625,-206.66502380371094,0,gustav
1772894732.6244595,-0.1478271484375,1.2708740234375,-0.4698486328125,32.28759765625,-32.16552734375,-225.46385192871094,0,gustav
1772894732.6244595,0.0848388671875,1.1341552734375,-0.55029296875,36.4990234375,-40.771480560302734,-240.05125427246094,0,gustav
1772894732.6244595,0.21142578125,0.9744873046875,-0.412353515625,25.085447311401367,-56.457515716552734,-235.71775817871094,0,gustav
1772894732.6915197,0.302978515625,0.77978515625,-0.178955078125,28.808591842651367,-60.852046966552734,-229.61424255371094,0,gustav
1772894732.7497418,0.3629150390625,0.5850830078125,-0.237060546875,43.945308685302734,-61.218257904052734,-211.60887145996094,0,gustav
1772894732.7497418,0.526611328125,0.5350341796875,-0.259521484375,-8.11767578125,-60.058589935302734,-201.66014099121094,0,gustav
1772894732.8710964,0.4681396484375,0.2674560546875,-0.0106201171875,-33.38623046875,-63.537593841552734,-185.85203552246094,0,gustav
1772894732.9261625,0.55908203125,0.364013671875,-0.1082763671875,4.33349609375,-56.762691497802734,-161.68211364746094,0,gustav
1772894732.9261625,0.8602294921875,0.330078125,-0.1123046875,-9.58251953125,-78.7353515625,-160.46142578125,0,gustav
1772894732.933608,0.570068359375,0.0867919921875,0.1661376953125,34.11865234375,-64.75830078125,-145.81298828125,0,gustav
1772894733.050171,1.0819091796875,0.009765625,-0.11083984375,45.471187591552734,-66.58935546875,-139.95361328125,0,gustav
1772894733.050171,0.7178955078125,-0.1590576171875,0.1396484375,-49.682613372802734,-74.89013671875,-169.49461364746094,0,gustav
1772894733.050171,0.7005615234375,-0.0015869140625,0.2724609375,53.894039154052734,-31.677244186401367,-112.85399627685547,0,gustav
1772894733.1077347,0.91552734375,-0.164306640625,0.1358642578125,-23.132322311401367,-19.22607421875,-73.6083984375,0,gustav
1772894733.113163,0.8182373046875,-0.1109619140625,0.317626953125,6.408690929412842,-13.244627952575684,-30.334470748901367,0,gustav
1772894733.1709495,0.9654541015625,-0.3114013671875,0.310791015625,24.963376998901367,-0.0610351525247097,-2.13623046875,0,gustav
1772894733.2324297,1.014892578125,-0.22802734375,0.2069091796875,12.451170921325684,-0.1220703050494194,-3.417968511581421,0,gustav
1772894733.2906268,1.0106201171875,-0.283935546875,0.2777099609375,19.59228515625,0.54931640625,-0.2441406100988388,0,gustav
1772894733.2906268,1.0196533203125,-0.294189453125,0.2078857421875,8.1787109375,3.417968511581421,-0.4882812201976776,0,gustav
1772894733.351206,0.9957275390625,-0.265625,0.228759765625,-7.507323741912842,4.69970703125,0.0610351525247097,0,gustav
1772894733.3532145,0.977783203125,-0.25,0.2314453125,-5.981444835662842,7.995604991912842,9.58251953125,0,gustav
1772894733.4071312,0.9619140625,-0.2205810546875,0.1954345703125,-10.314940452575684,9.09423828125,22.521970748901367,0,gustav
1772894733.4647195,0.9119873046875,-0.192138671875,0.1976318359375,-17.4560546875,10.437010765075684,42.663570404052734,0,gustav
1772894733.4731643,0.92236328125,-0.206787109375,0.1676025390625,-27.038572311401367,12.878417015075684,58.410640716552734,0,gustav
1772894733.5328207,0.841552734375,-0.151611328125,0.1796875,-28.259275436401367,14.953612327575684,80.62743377685547,0,gustav
1772894733.587444,0.8399658203125,-0.1021728515625,0.0965576171875,-24.536130905151367,18.1884765625,102.84423065185547,0,gustav
1772894733.592985,0.8292236328125,-0.0185546875,0.1085205078125,-31.433103561401367,21.850584030151367,123.47411346435547,0,gustav
1772894733.7122147,0.79052734375,0.0933837890625,0.06396484375,-28.137205123901367,28.015134811401367,132.8125,0,gustav
1772894733.7130656,0.8724365234375,0.326416015625,0.019287109375,-40.161128997802734,36.7431640625,129.638671875,0,gustav
1772894733.7138062,0.96826171875,0.29736328125,0.0169677734375,-36.19384765625,35.0341796875,116.33300018310547,0,gustav
1772894733.891178,0.901123046875,0.5147705078125,0.0301513671875,-11.169432640075684,44.677730560302734,114.01366424560547,0,gustav
1772894733.891178,0.993896484375,0.6011962890625,-0.1590576171875,-0.6713866591453552,30.212400436401367,93.81102752685547,0,gustav
1772894733.891178,0.8050537109375,0.54541015625,-0.028564453125,14.221190452575684,29.479978561401367,91.79686737060547,0,gustav
1772894733.949087,0.7786865234375,0.6414794921875,-0.1644287109375,8.4228515625,25.817869186401367,83.80126190185547,0,gustav
1772894733.949087,0.644287109375,0.6195068359375,-0.0733642578125,-4.08935546875,29.663084030151367,85.57128143310547,0,gustav
1772894734.0107348,0.703369140625,0.7781982421875,-0.1591796875,-8.72802734375,33.87451171875,83.12987518310547,0,gustav
1772894734.1926908,0.571044921875,0.725830078125,-0.12939453125,-14.099120140075684,25.817869186401367,80.44432830810547,0,gustav
1772894734.1937425,0.4827880859375,0.76318359375,-0.1068115234375,-13.610838890075684,29.602048873901367,83.49608612060547,0,gustav
1772894734.1937425,0.47900390625,0.793701171875,-0.17919921875,-15.014647483825684,28.564451217651367,82.45848846435547,0,gustav
1772894734.1950445,0.4085693359375,0.778076171875,-0.278076171875,-37.04833984375,30.761716842651367,83.92333221435547,0,gustav
1772894734.2494771,0.3248291015625,0.93408203125,-0.2896728515625,-25.512693405151367,35.82763671875,70.3125,0,gustav
1772894734.430324,0.3189697265625,0.9635009765625,-0.3863525390625,-27.099607467651367,30.334470748901367,62.744136810302734,0,gustav
1772894734.430324,0.2344970703125,0.9351806640625,-0.2835693359375,-31.921384811401367,30.761716842651367,59.875484466552734,0,gustav
1772894734.610837,0.24560546875,0.94091796875,-0.3406982421875,-11.474608421325684,27.282712936401367,58.837886810302734,0,gustav
1772894734.610837,0.166259765625,0.864013671875,-0.3243408203125,-5.920409679412842,26.489255905151367,61.889644622802734,0,gustav
1772894734.6138332,0.135498046875,0.90234375,-0.389892578125,12.512206077575684,24.536130905151367,56.152339935302734,0,gustav
1772894734.8510597,0.0660400390625,0.9373779296875,-0.316162109375,11.169432640075684,25.634763717651367,54.687496185302734,0,gustav
1772894734.9115324,-0.0927734375,0.9140625,-0.3748779296875,-0.3662109076976776,18.5546875,49.316402435302734,0,gustav
1772894734.9115324,-0.12109375,0.8792724609375,-0.3377685546875,-8.9111328125,17.63916015625,47.912593841552734,0,gustav
1772894734.9115324,-0.130859375,0.951171875,-0.361328125,0.3662109076976776,17.51708984375,48.583980560302734,0,gustav
1772894734.9115324,-0.16162109375,1.052734375,-0.4111328125,5.126952648162842,9.94873046875,41.625972747802734,0,gustav
1772894734.972693,-0.2333984375,1.0155029296875,-0.404052734375,3.723144292831421,-9.6435546875,3.479003667831421,0,gustav
1772894735.030058,-0.2537841796875,0.968505859375,-0.3228759765625,-1.7700194120407104,-13.793944358825684,-9.765625,0,gustav
1772894735.4497268,-0.2249755859375,1.0096435546875,-0.37744140625,-1.8920897245407104,-14.770506858825684,-21.423337936401367,0,gustav
1772894735.4497268,-0.221435546875,1.0426025390625,-0.3880615234375,-4.5166015625,-18.85986328125,-35.888671875,0,gustav
1772894735.5071094,-0.1917724609375,1.112548828125,-0.400146484375,-8.48388671875,-24.536130905151367,-58.654781341552734,0,gustav
1772894735.5071094,-0.1343994140625,1.1497802734375,-0.451904296875,-7.934569835662842,-31.433103561401367,-87.09716033935547,0,gustav
1772894735.5071094,0.14599609375,1.2860107421875,-0.6217041015625,-8.11767578125,-53.588863372802734,-153.86962890625,0,gustav
1772894735.5071094,0.558837890625,0.5352783203125,-0.3865966796875,19.59228515625,-62.988277435302734,-157.470703125,0,gustav
1772894735.6326349,0.5977783203125,0.511962890625,-0.193115234375,-31.677244186401367,-60.974117279052734,-151.91650390625,0,gustav
1772894735.633392,0.7955322265625,0.3399658203125,-0.1026611328125,-26.062009811401367,-75.5615234375,-151.91650390625,0,gustav
1772894735.633392,0.7135009765625,0.173095703125,-0.05517578125,5.737304210662842,-76.84326171875,-138.73291015625,0,gustav
1772894735.6899242,0.8529052734375,-0.0003662109375,0.0672607421875,15.747069358825684,-78.67431640625,-139.2822265625,0,gustav
1772894735.6899242,0.6436767578125,0.158935546875,0.095703125,29.296873092651367,-69.88525390625,-131.4697265625,0,gustav
1772894735.7451818,0.8458251953125,0.0328369140625,-0.01953125,35.94970703125,-48.583980560302734,-94.48241424560547,0,gustav
1772894735.8723047,0.8592529296875,-0.0350341796875,0.0726318359375,-41.931148529052734,-43.212886810302734,-75.86669921875,0,gustav
1772894735.8723047,0.928955078125,-0.008544921875,0.1898193359375,-16.845703125,-34.85107421875,-65.673828125,0,gustav
1772894735.8723047,0.8880615234375,0.011474609375,0.250732421875,15.502928733825684,-17.08984375,-53.649898529052734,0,gustav
1772894735.927253,0.960205078125,-0.1171875,0.128173828125,30.517576217651367,-6.225585460662842,-29.602048873901367,0,gustav
1772894735.9855776,0.9635009765625,-0.1070556640625,0.1396484375,-4.69970703125,-5.798339366912842,-19.287109375,0,gustav
1772894735.9855776,0.986328125,-0.129150390625,0.21728515625,11.657713890075684,-2.624511480331421,-3.601073980331421,0,gustav
1772894736.0486503,1.0120849609375,-0.2244873046875,0.1954345703125,8.1787109375,0.0610351525247097,1.6479490995407104,0,gustav
1772894736.0486503,1.0106201171875,-0.182861328125,0.176513671875,-0.2441406100988388,-0.4272460639476776,6.958007335662842,0,gustav
1772894736.1695995,0.966796875,-0.1923828125,0.21484375,0.7324218153953552,5.798339366912842,15.563963890075684,0,gustav
1772894736.1695995,0.9681396484375,-0.1827392578125,0.1844482421875,-17.02880859375,7.629394054412842,23.620603561401367,0,gustav
1772894736.1695995,0.9765625,-0.138427734375,0.1644287109375,-14.160155296325684,11.230467796325684,35.0341796875,0,gustav
1772894736.2327826,0.94775390625,-0.082275390625,0.1431884765625,-19.34814453125,12.390135765075684,46.020503997802734,0,gustav
1772894736.2878628,0.9552001953125,-0.090576171875,0.1485595703125,-11.596678733825684,15.197752952575684,63.476558685302734,0,gustav
1772894736.4084253,0.908447265625,-0.0469970703125,0.1298828125,-13.427733421325684,18.24951171875,77.5146484375,0,gustav
1772894736.4084253,0.876708984375,-0.0096435546875,0.0902099609375,-4.5166015625,23.254392623901367,88.56200408935547,0,gustav
1772894736.4133098,0.8665771484375,0.0377197265625,0.0848388671875,3.173827886581421,28.442380905151367,98.69384002685547,0,gustav
1772894736.4133098,0.904296875,0.1534423828125,0.054931640625,5.859374523162842,30.090330123901367,99.42626190185547,0,gustav
1772894736.468548,0.8746337890625,0.2254638671875,0.0540771484375,18.6767578125,33.75244140625,107.17772674560547,0,gustav
1772894736.5911703,0.9283447265625,0.388427734375,-0.0062255859375,19.83642578125,36.62109375,105.89598846435547,0,gustav
1772894736.5911703,0.90966796875,0.3936767578125,-0.0211181640625,6.896972179412842,31.555173873901367,100.28075408935547,0,gustav
1772894736.5911703,0.7962646484375,0.5592041015625,0.003173828125,10.864256858825684,36.43798828125,102.11180877685547,0,gustav
1772894736.8280299,0.922119140625,0.5499267578125,-0.1431884765625,-2.624511480331421,30.822751998901367,94.17723846435547,0,gustav
1772894736.8280299,0.7069091796875,0.6444091796875,-0.046630859375,-24.169919967651367,29.724119186401367,88.19579315185547,0,gustav
1772894736.8280299,0.6600341796875,0.6107177734375,-0.1083984375,-18.24951171875,36.4990234375,88.13475799560547,0,gustav
1772894736.8354895,0.64697265625,0.73583984375,-0.191650390625,-15.014647483825684,38.14697265625,83.61815643310547,0,gustav
1772894736.8914757,0.476806640625,0.7469482421875,-0.076171875,2.624511480331421,39.6728515625,61.767574310302734,0,gustav
1772894736.8937223,0.488525390625,0.7408447265625,-0.2615966796875,19.22607421875,33.26416015625,69.51904296875,0,gustav
1772894736.9492364,0.4716796875,0.7547607421875,-0.2786865234375,-2.929687261581421,38.330078125,67.19970703125,0,gustav
1772894737.007026,0.57568359375,0.8636474609375,-0.2186279296875,-1.4648436307907104,33.99658203125,70.61767578125,0,gustav
1772894737.24641,0.4407958984375,0.823974609375,-0.201904296875,8.97216796875,36.4990234375,74.40185546875,0,gustav
1772894737.2530725,0.5032958984375,0.9720458984375,-0.2862548828125,-3.723144292831421,37.7197265625,72.509765625,0,gustav
1772894737.3107116,0.3045654296875,0.86474609375,-0.2877197265625,-15.319823265075684,27.648923873901367,72.6318359375,0,gustav
1772894737.3107116,0.27587890625,0.8990478515625,-0.3231201171875,-16.90673828125,28.198240280151367,69.4580078125,0,gustav
1772894737.3107116,0.1297607421875,0.897705078125,-0.3453369140625,1.5869139432907104,25.146482467651367,73.66943359375,0,gustav
1772894737.3107116,0.0257568359375,0.9674072265625,-0.3465576171875,13.977049827575684,20.263669967651367,75.0732421875,0,gustav
1772894737.3719082,0.00244140625,1.0557861328125,-0.3758544921875,9.6435546875,18.1884765625,68.9697265625,0,gustav
1772894737.3719082,-0.0897216796875,0.923828125,-0.3184814453125,8.23974609375,15.197752952575684,66.95556640625,0,gustav
1772894737.4932091,-0.083984375,1.0477294921875,-0.2530517578125,13.793944358825684,20.01953125,61.645503997802734,0,gustav
1772894737.4932091,-0.1370849609375,0.951904296875,-0.346923828125,3.967284917831421,14.648436546325684,55.603023529052734,0,gustav
1772894737.5522943,-0.175048828125,0.9932861328125,-0.29833984375,-19.10400390625,11.779784202575684,49.621578216552734,0,gustav
1772894737.5522943,-0.2080078125,0.9674072265625,-0.251708984375,-4.5166015625,14.892577171325684,39.794921875,0,gustav
1772894737.6118877,-0.22021484375,0.99658203125,-0.345458984375,-2.624511480331421,17.39501953125,29.235837936401367,0,gustav
1772894737.6134028,-0.244140625,1.0,-0.33984375,-0.3662109076976776,13.183592796325684,16.4794921875,0,gustav
1772894737.7332945,-0.276611328125,0.954833984375,-0.2838134765625,0.6713866591453552,10.864256858825684,7.446288585662842,0,gustav
1772894737.7332945,-0.2569580078125,0.943603515625,-0.3382568359375,5.432128429412842,8.7890625,2.929687261581421,0,gustav
1772894737.7332945,-0.2574462890625,0.941650390625,-0.36474609375,-2.38037109375,1.4038084745407104,-4.08935546875,0,gustav
1772894737.9027941,-0.255126953125,0.8831787109375,-0.316650390625,-0.7324218153953552,-2.01416015625,-8.48388671875,0,gustav
1772894737.9027941,-0.2509765625,0.8941650390625,-0.3365478515625,-3.112792730331421,-1.2817381620407104,-6.042479991912842,0,gustav
1772894737.9027941,-0.19189453125,0.9993896484375,-0.396484375,-7.141112804412842,-3.662109136581421,-11.474608421325684,0,gustav
1772894737.914861,-0.226318359375,1.130126953125,-0.419921875,-19.1650390625,-15.563963890075684,-26.489255905151367,0,gustav
1772894737.9702048,-0.17822265625,1.2872314453125,-0.4544677734375,-9.70458984375,-26.855466842651367,-58.898921966552734,0,gustav
1772894737.9702048,-0.1834716796875,1.263671875,-0.427001953125,3.173827886581421,-36.1328125,-88.50096893310547,0,gustav
1772894738.0321083,-0.1204833984375,1.31640625,-0.4150390625,12.512206077575684,-38.4521484375,-121.03270721435547,0,gustav
1772894738.0909455,-0.0574951171875,1.1416015625,-0.52392578125,29.785154342651367,-51.635738372802734,-149.5361328125,0,gustav
1772894738.0909455,-0.00146484375,1.1373291015625,-0.302978515625,22.216794967651367,-52.551265716552734,-163.14695739746094,0,gustav
1772894738.2111144,0.1036376953125,1.054931640625,-0.3057861328125,42.358394622802734,-52.124019622802734,-173.88914489746094,0,gustav
1772894738.2710476,0.213134765625,0.894287109375,-0.3486328125,4.94384765625,-51.513668060302734,-180.84715270996094,0,gustav
1772894738.2710476,0.3306884765625,0.9971923828125,-0.2720947265625,-1.220703125,-55.053707122802734,-193.29832458496094,0,gustav
1772894738.2710476,0.4224853515625,0.669189453125,-0.2696533203125,-2.3193359375,-60.913082122802734,-195.25144958496094,0,gustav
1772894738.2772882,0.4737548828125,0.646728515625,-0.068359375,-15.502928733825684,-66.58935546875,-185.30271911621094,0,gustav
1772894738.332293,0.6461181640625,0.4581298828125,-0.2354736328125,4.21142578125,-68.78662109375,-172.91258239746094,0,gustav
1772894738.510733,0.5679931640625,0.4342041015625,-0.040283203125,0.0610351525247097,-77.392578125,-156.1279296875,0,gustav
1772894738.510733,0.7369384765625,0.3045654296875,-0.005615234375,12.390135765075684,-75.62255859375,-143.37158203125,0,gustav
1772894738.510733,0.517822265625,0.2442626953125,0.116455078125,50.537105560302734,-70.9228515625,-125.73241424560547,0,gustav
1772894738.510733,1.1336669921875,0.358642578125,-0.0135498046875,38.63525390625,-60.607906341552734,-132.080078125,0,gustav
1772894738.625222,0.7269287109375,0.020751953125,0.2237548828125,80.81053924560547,-13.916014671325684,-99.18212127685547,0,gustav
1772894738.625222,0.9217529296875,-0.0516357421875,0.0223388671875,-50.170894622802734,-32.28759765625,-92.65135955810547,0,gustav
1772894738.625222,0.7164306640625,-0.0087890625,0.343994140625,-13.427733421325684,-17.27294921875,-41.320796966552734,0,gustav
1772894738.6916962,0.9901123046875,-0.247802734375,0.216552734375,-3.417968511581421,-5.493163585662842,-20.080564498901367,0,gustav
1772894738.7513425,0.9979248046875,-0.08251953125,0.256103515625,-6.286620616912842,-8.36181640625,-11.840819358825684,0,gustav
1772894738.7513425,1.0611572265625,-0.158935546875,0.2359619140625,16.11328125,-5.798339366912842,-2.868652105331421,0,gustav
1772894738.81353,1.05712890625,-0.138671875,0.2374267578125,-5.187987804412842,-7.690429210662842,-12.878417015075684,0,gustav
1772894738.8684525,0.9761962890625,-0.1143798828125,0.2745361328125,1.5258787870407104,0.4272460639476776,-4.5166015625,0,gustav
1772894738.8684525,0.9642333984375,-0.1114501953125,0.2359619140625,-14.526366233825684,1.7700194120407104,2.0751953125,0,gustav
1772894738.92619,0.942626953125,-0.1068115234375,0.247314453125,0.1220703050494194,4.5166015625,16.2353515625,0,gustav
1772894738.99183,0.9376220703125,-0.10546875,0.2252197265625,-5.187987804412842,7.202147960662842,26.794431686401367,0,gustav
1772894738.99183,0.9287109375,-0.079833984375,0.2384033203125,3.723144292831421,11.169432640075684,40.283199310302734,0,gustav
1772894739.0485923,0.9259033203125,-0.0718994140625,0.2432861328125,15.991209983825684,15.014647483825684,58.532711029052734,0,gustav
1772894739.111993,0.9078369140625,-0.071533203125,0.209228515625,10.681151390075684,17.76123046875,75.01220703125,0,gustav
1772894739.17135,0.8851318359375,-0.0150146484375,0.22119140625,19.59228515625,21.179197311401367,95.03173065185547,0,gustav
1772894739.17135,0.8057861328125,0.0042724609375,0.220947265625,33.935546875,27.404783248901367,117.98094940185547,0,gustav
1772894739.2916539,0.862060546875,0.185791015625,0.125244140625,23.376462936401367,30.395505905151367,125.36620330810547,0,gustav
1772894739.2916539,0.9073486328125,0.2894287109375,0.1256103515625,22.827146530151367,27.954099655151367,127.92967987060547,0,gustav
1772894739.2916539,0.9464111328125,0.48388671875,0.1114501953125,23.193357467651367,28.930662155151367,121.94823455810547,0,gustav
1772894739.4100726,0.97265625,0.52978515625,0.078857421875,18.24951171875,23.925779342651367,111.02294158935547,0,gustav
1772894739.4100726,0.7828369140625,0.5302734375,0.1468505859375,14.831542015075684,21.484373092651367,110.04637908935547,0,gustav
1772894739.4132917,0.82373046875,0.702880859375,0.0255126953125,4.0283203125,21.911619186401367,103.82079315185547,0,gustav
1772894739.4674702,0.7744140625,0.6063232421875,-0.0322265625,-43.884273529052734,14.099120140075684,92.22411346435547,0,gustav
1772894739.4674702,0.595947265625,0.7911376953125,0.1512451171875,-54.809566497802734,23.864744186401367,86.85301971435547,0,gustav
1772894739.5925965,0.6580810546875,0.7388916015625,-0.06005859375,-41.931148529052734,20.080564498901367,79.2236328125,0,gustav
1772894739.5934663,0.5496826171875,0.82373046875,-0.1556396484375,-34.97314453125,12.512206077575684,78.2470703125,0,gustav
1772894739.5934663,0.4627685546875,0.775146484375,-0.0794677734375,-35.400390625,6.713866710662842,79.04052734375,0,gustav
1772894739.649964,0.3658447265625,0.8258056640625,-0.1182861328125,-34.60693359375,7.934569835662842,82.76366424560547,0,gustav
1772894739.649964,0.370849609375,0.8321533203125,-0.1405029296875,-16.11328125,9.521484375,83.80126190185547,0,gustav
1772894739.7106812,0.304443359375,0.8861083984375,-0.1556396484375,-27.160642623901367,15.930174827575684,79.7119140625,0,gustav
1772894739.7695527,0.348876953125,0.9345703125,-0.216552734375,-29.663084030151367,19.287109375,77.33154296875,0,gustav
1772894739.7695527,0.3228759765625,0.9403076171875,-0.1727294921875,-47.485347747802734,25.451658248901367,67.626953125,0,gustav
1772894739.8281834,0.312255859375,1.02490234375,-0.15869140625,-35.0341796875,32.65380859375,64.3310546875,0,gustav
1772894739.8917215,0.3243408203125,0.970947265625,-0.2579345703125,-26.611326217651367,31.372068405151367,61.157222747802734,0,gustav
1772894739.892833,0.2105712890625,0.9573974609375,-0.2161865234375,-28.808591842651367,38.02490234375,55.786128997802734,0,gustav
1772894740.0093694,0.21240234375,0.9608154296875,-0.2718505859375,-8.056640625,40.954586029052734,56.945796966552734,0,gustav
1772894740.0093694,0.1070556640625,0.9144287109375,-0.26904296875,10.803221702575684,40.771480560302734,60.607906341552734,0,gustav
1772894740.0140638,0.0557861328125,0.879638671875,-0.281005859375,1.6479490995407104,42.053218841552734,61.035152435302734,0,gustav
1772894740.1928704,0.008544921875,0.95361328125,-0.266357421875,4.45556640625,40.954586029052734,64.14794921875,0,gustav
1772894740.1928704,-0.0184326171875,0.984375,-0.3486328125,-0.4882812201976776,35.94970703125,64.3310546875,0,gustav
1772894740.1938763,-0.07763671875,0.98046875,-0.304931640625,-7.446288585662842,28.320310592651367,57.434078216552734,0,gustav
1772894740.1938763,-0.070068359375,1.06689453125,-0.3363037109375,-13.610838890075684,21.240232467651367,48.156734466552734,0,gustav
1772894740.2510135,-0.1229248046875,1.0477294921875,-0.303955078125,-7.629394054412842,12.634276390075684,36.80419921875,0,gustav
1772894740.3689141,-0.1650390625,0.9947509765625,-0.30615234375,-2.197265625,12.084959983825684,29.846189498901367,0,gustav
1772894740.3689141,-0.1441650390625,0.9619140625,-0.3525390625,14.038084983825684,7.446288585662842,24.414060592651367,0,gustav
1772894740.3726394,-0.169921875,0.9237060546875,-0.270751953125,3.967284917831421,5.676269054412842,22.766111373901367,0,gustav
1772894740.3726394,-0.1712646484375,0.876220703125,-0.2508544921875,19.10400390625,10.803221702575684,29.357908248901367,0,gustav
1772894740.4918864,-0.190185546875,0.8934326171875,-0.298095703125,5.065917491912842,10.742186546325684,39.794921875,0,gustav
1772894740.4918864,-0.237060546875,0.9097900390625,-0.279296875,-3.540038824081421,11.047362327575684,45.227046966552734,0,gustav
1772894740.4933836,-0.267578125,0.9390869140625,-0.3095703125,-10.742186546325684,7.995604991912842,43.579097747802734,0,gustav
1772894740.5456333,-0.3135986328125,0.9930419921875,-0.302734375,-16.17431640625,0.54931640625,33.3251953125,0,gustav
1772894740.6695924,-0.3743896484375,1.008056640625,-0.2979736328125,-7.019042491912842,-3.356933355331421,17.578125,0,gustav
1772894740.6695924,-0.358642578125,0.9945068359375,-0.3388671875,6.347655773162842,-12.390135765075684,-2.50244140625,0,gustav
1772894740.6695924,-0.3623046875,0.9443359375,-0.29345703125,8.9111328125,-15.258788108825684,-20.263669967651367,0,gustav
1772894740.6732774,-0.315673828125,0.9677734375,-0.2967529296875,18.98193359375,-15.075682640075684,-32.53173828125,0,gustav
1772894740.732206,-0.2890625,1.02392578125,-0.3470458984375,5.798339366912842,-17.63916015625,-49.316402435302734,0,gustav
1772894740.7890134,-0.2542724609375,1.1412353515625,-0.335205078125,1.5258787870407104,-19.8974609375,-65.91796875,0,gustav
1772894740.7890134,-0.2086181640625,1.20361328125,-0.3887939453125,0.4272460639476776,-22.644041061401367,-95.82518768310547,0,gustav
1772894740.8517253,-0.1334228515625,1.3121337890625,-0.387451171875,-3.906249761581421,-28.259275436401367,-131.65283203125,0,gustav
1772894740.9092846,-0.07666015625,1.2772216796875,-0.3729248046875,-0.0610351525247097,-33.75244140625,-159.3017578125,0,gustav
1772894740.9092846,0.0550537109375,1.215087890625,-0.396728515625,18.24951171875,-41.809078216552734,-178.77195739746094,0,gustav
1772894741.0316813,0.173583984375,1.0235595703125,-0.373291015625,18.1884765625,-51.879878997802734,-185.11961364746094,0,gustav
1772894741.0913134,0.2763671875,0.876220703125,-0.2574462890625,24.597166061401367,-58.959957122802734,-183.28855895996094,0,gustav
1772894741.0913134,0.388427734375,0.821044921875,-0.1485595703125,7.812499523162842,-58.410640716552734,-183.47166442871094,0,gustav
1772894741.1519358,0.455810546875,0.6300048828125,-0.2032470703125,28.198240280151367,-59.387203216552734,-174.01121520996094,0,gustav
1772894741.2088056,0.533447265625,0.547607421875,-0.0684814453125,-15.869139671325684,-55.358882904052734,-165.10008239746094,0,gustav
1772894741.2088056,0.602783203125,0.4229736328125,-0.1112060546875,9.94873046875,-56.640621185302734,-154.1748046875,0,gustav
1772894741.2088056,0.6922607421875,0.44189453125,-0.0506591796875,-3.845214605331421,-54.870601654052734,-142.88330078125,0,gustav
1772894741.3240712,0.8780517578125,0.398681640625,-0.0509033203125,-10.192870140075684,-64.27001953125,-149.23095703125,0,gustav
1772894741.3240712,0.7982177734375,0.3143310546875,0.03564453125,1.5258787870407104,-69.3359375,-148.3154296875,0,gustav
1772894741.3901572,0.84521484375,0.0845947265625,0.11962890625,-6.652831554412842,-73.8525390625,-157.8369140625,0,gustav
1772894741.392696,0.572265625,0.126953125,0.110595703125,21.606443405151367,-61.279293060302734,-134.09423828125,0,gustav
1772894741.4464893,0.7664794921875,0.0318603515625,0.09912109375,-15.991209983825684,-46.142574310302734,-105.59081268310547,0,gustav
1772894741.4464893,0.797119140625,-0.1204833984375,0.2542724609375,-9.521484375,-31.066892623901367,-66.89453125,0,gustav
1772894741.5699596,0.9254150390625,-0.097412109375,0.3883056640625,7.995604991912842,-15.624999046325684,-36.2548828125,0,gustav
1772894741.5699596,1.005615234375,-0.1650390625,0.314453125,24.719236373901367,-13.732909202575684,-20.324705123901367,0,gustav
1772894741.5699596,1.0018310546875,-0.238525390625,0.342041015625,33.935546875,-6.530761241912842,-16.90673828125,0,gustav
1772894741.6282644,0.992431640625,-0.2349853515625,0.361083984375,19.10400390625,0.7934569716453552,-12.145995140075684,0,gustav
1772894741.6282644,0.9630126953125,-0.2147216796875,0.35009765625,10.986327171325684,7.385253429412842,1.9531248807907104,0,gustav
1772894741.7511437,0.9327392578125,-0.18017578125,0.3126220703125,0.4882812201976776,9.1552734375,15.624999046325684,0,gustav
1772894741.7511437,0.9425048828125,-0.18701171875,0.2579345703125,-3.540038824081421,13.061522483825684,28.015134811401367,0,gustav
1772894741.8087585,0.9312744140625,-0.0872802734375,0.26171875,-7.812499523162842,11.962889671325684,37.109375,0,gustav
1772894741.8087585,0.9332275390625,-0.0965576171875,0.23681640625,-11.169432640075684,9.46044921875,46.386714935302734,0,gustav
1772894741.8700135,0.890380859375,-0.0289306640625,0.224365234375,-9.3994140625,12.512206077575684,58.166500091552734,0,gustav
1772894741.873129,0.898681640625,-0.0050048828125,0.1904296875,-11.413573265075684,14.465331077575684,67.7490234375,0,gustav
1772894741.9324193,0.844482421875,0.0804443359375,0.1695556640625,-17.88330078125,17.39501953125,84.77782440185547,0,gustav
1772894741.9912071,0.8221435546875,0.1083984375,0.1512451171875,-17.578125,22.399900436401367,97.10692596435547,0,gustav
1772894741.9930255,0.7552490234375,0.2049560546875,0.1400146484375,-3.906249761581421,27.893064498901367,111.63329315185547,0,gustav
1772894742.1113474,0.9075927734375,0.2484130859375,0.107177734375,5.0048828125,32.1044921875,109.13085174560547,0,gustav
1772894742.1113474,0.798095703125,0.2730712890625,0.120361328125,2.563476324081421,37.109375,109.92430877685547,0,gustav
1772894742.1133914,0.9228515625,0.494140625,0.0902099609375,5.065917491912842,47.119136810302734,106.14012908935547,0,gustav
1772894742.2914524,0.8126220703125,0.4569091796875,-0.0020751953125,3.845214605331421,46.081539154052734,106.26219940185547,0,gustav
1772894742.349761,0.928955078125,0.646484375,0.009765625,-17.63916015625,53.527828216552734,95.82518768310547,0,gustav
1772894742.4096587,0.8157958984375,0.6375732421875,-0.071533203125,-30.822751998901367,43.395992279052734,89.17235565185547,0,gustav
1772894742.4096587,0.718017578125,0.69140625,-0.078857421875,-24.780271530151367,49.865718841552734,83.67919158935547,0,gustav
1772894742.4134781,0.7418212890625,0.67626953125,-0.1591796875,-36.7431640625,44.006343841552734,78.9794921875,0,gustav
1772894742.4134781,0.6837158203125,0.786865234375,-0.2119140625,-27.954099655151367,36.9873046875,76.7822265625,0,gustav
1772894742.4156072,0.5364990234375,0.7962646484375,-0.2352294921875,-9.58251953125,28.686521530151367,75.8056640625,0,gustav
1772894742.4717753,0.520751953125,0.8013916015625,-0.2139892578125,-4.7607421875,25.390623092651367,75.25634765625,0,gustav
1772894742.5328104,0.43603515625,0.8179931640625,-0.256103515625,2.01416015625,24.169919967651367,74.21875,0,gustav
1772894742.5918195,0.425048828125,0.9232177734375,-0.3206787109375,14.831542015075684,18.98193359375,73.974609375,0,gustav
1772894742.5928488,0.3509521484375,0.8392333984375,-0.2440185546875,-5.615233898162842,18.310546875,70.49560546875,0,gustav
1772894742.7111611,0.2696533203125,0.86767578125,-0.2000732421875,1.4648436307907104,22.460935592651367,76.72119140625,0,gustav
1772894742.7136753,0.2803955078125,0.904052734375,-0.274658203125,-7.873534679412842,24.658201217651367,75.37841796875,0,gustav
1772894742.7136753,0.1920166015625,0.9249267578125,-0.2818603515625,-15.075682640075684,26.794431686401367,78.67431640625,0,gustav
1772894742.8311636,0.1961669921875,0.9462890625,-0.275146484375,-29.052732467651367,33.0810546875,73.91357421875,0,gustav
1772894742.8333652,0.0826416015625,0.90234375,-0.265869140625,-20.935056686401367,36.376953125,74.3408203125,0,gustav
1772894742.8333652,0.065185546875,1.0118408203125,-0.3636474609375,-21.728513717651367,41.809078216552734,67.32177734375,0,gustav
1772894742.8907945,0.0098876953125,0.98095703125,-0.38525390625,-6.408690929412842,38.6962890625,67.7490234375,0,gustav
1772894742.9525197,-0.087890625,0.9385986328125,-0.3162841796875,1.0986328125,38.818359375,67.138671875,0,gustav
1772894742.9525197,-0.0767822265625,0.96923828125,-0.38330078125,0.6713866591453552,37.9638671875,65.24658203125,0,gustav
1772894743.0704968,-0.09033203125,0.9688720703125,-0.41455078125,4.57763671875,28.625486373901367,67.68798828125,0,gustav
1772894743.0704968,-0.1463623046875,0.97265625,-0.361328125,-12.634276390075684,24.536130905151367,64.5751953125,0,gustav
1772894743.0704968,-0.2105712890625,0.9654541015625,-0.36669921875,-10.559081077575684,17.9443359375,62.011714935302734,0,gustav
1772894743.1311517,-0.2125244140625,1.1015625,-0.451171875,-13.366698265075684,9.1552734375,49.682613372802734,0,gustav
1772894743.1311517,-0.28857421875,1.011474609375,-0.4298095703125,-11.047362327575684,-3.784179449081421,27.893064498901367,0,gustav
1772894743.191208,-0.32666015625,1.003662109375,-0.3494873046875,2.868652105331421,-5.371093273162842,7.873534679412842,0,gustav
1772894743.246778,-0.314697265625,0.9774169921875,-0.4002685546875,-2.197265625,-8.60595703125,-11.779784202575684,0,gustav
1772894743.246778,-0.2991943359375,0.9007568359375,-0.4061279296875,10.986327171325684,-12.634276390075684,-22.399900436401367,0,gustav
1772894743.3066971,-0.2685546875,0.86376953125,-0.342041015625,7.568358898162842,-11.901854515075684,-25.451658248901367,0,gustav
1772894743.4311664,-0.237060546875,0.8385009765625,-0.3184814453125,9.82666015625,-8.11767578125,-21.728513717651367,0,gustav
1772894743.4311664,-0.206787109375,0.8466796875,-0.337646484375,5.126952648162842,-5.920409679412842,-14.160155296325684,0,gustav
1772894743.4345288,-0.179931640625,0.8603515625,-0.33251953125,6.164550304412842,-4.7607421875,-4.5166015625,0,gustav
1772894743.4898887,-0.1893310546875,0.8956298828125,-0.3193359375,3.662109136581421,-3.723144292831421,0.6713866591453552,0,gustav
1772894743.4898887,-0.1796875,0.9766845703125,-0.3719482421875,17.2119140625,-0.8544921278953552,8.48388671875,0,gustav
1772894743.6126533,-0.1807861328125,0.850830078125,-0.3773193359375,-4.638671875,-6.103515148162842,0.8544921278953552,0,gustav
1772894743.6126533,-0.1739501953125,0.9326171875,-0.2843017578125,1.8310545682907104,-6.286620616912842,5.737304210662842,0,gustav
1772894743.6136413,-0.19287109375,0.9249267578125,-0.310302734375,-2.624511480331421,-1.8920897245407104,3.173827886581421,0,gustav
