time,ax,ay,az,gx,gy,gz,label,person
1772897651.2735004,0.9329833984375,0.1707763671875,0.390625,5.310058116912842,-0.30517578125,-7.934569835662842,1,henrik
1772897651.2988472,0.9658203125,0.1336669921875,0.42333984375,4.21142578125,-3.784179449081421,-2.01416015625,1,henrik
1772897651.3448708,0.954833984375,0.14453125,0.4254150390625,-1.9531248807907104,-6.225585460662842,-4.2724609375,1,henrik
1772897651.404093,0.9482421875,0.1544189453125,0.4376220703125,-6.591796398162842,-8.11767578125,-2.3193359375,1,henrik
1772897651.4517288,0.9539794921875,0.169189453125,0.3941650390625,-3.112792730331421,-6.774901866912842,-0.1831054538488388,1,henrik
1772897651.4659674,0.9439697265625,0.1700439453125,0.3935546875,1.6479490995407104,-3.967284917831421,2.25830078125,1,henrik
1772897651.4947364,0.923828125,0.14794921875,0.3800048828125,-2.25830078125,-2.807616949081421,3.967284917831421,1,henrik
1772897651.5249662,0.8953857421875,0.146484375,0.3912353515625,-0.4272460639476776,-1.0986328125,1.4038084745407104,1,henrik
1772897651.5690274,0.90625,0.1341552734375,0.384521484375,-2.0751953125,-1.220703125,1.5869139432907104,1,henrik
1772897651.5960233,0.9002685546875,0.1380615234375,0.4033203125,1.5869139432907104,1.4038084745407104,0.1220703050494194,1,henrik
1772897651.676603,0.9127197265625,0.148681640625,0.420166015625,-5.371093273162842,0.8544921278953552,2.44140625,1,henrik
1772897651.676603,0.9371337890625,0.1763916015625,0.4061279296875,-2.868652105331421,2.746581792831421,0.4882812201976776,1,henrik
1772897651.7175593,0.9390869140625,0.1778564453125,0.4169921875,-2.990722417831421,2.807616949081421,2.25830078125,1,henrik
1772897651.7453208,0.9530029296875,0.175537109375,0.435302734375,-3.662109136581421,5.065917491912842,0.4882812201976776,1,henrik
1772897651.8267894,0.9566650390625,0.1810302734375,0.4217529296875,-7.873534679412842,5.615233898162842,4.69970703125,1,henrik
1772897651.854,0.9757080078125,0.1805419921875,0.4144287109375,-6.164550304412842,9.58251953125,5.798339366912842,1,henrik
1772897651.8851717,0.9776611328125,0.208984375,0.39306640625,6.591796398162842,14.343260765075684,8.7890625,1,henrik
1772897651.9136543,1.05224609375,0.206298828125,0.4227294921875,4.33349609375,17.08984375,12.878417015075684,1,henrik
1772897651.94398,1.09423828125,0.22314453125,0.4017333984375,0.3662109076976776,22.949216842651367,21.118162155151367,1,henrik
1772897651.991827,1.234375,0.364990234375,0.4903564453125,-20.202634811401367,27.954099655151367,33.38623046875,1,henrik
1772897652.0812104,1.3646240234375,0.3533935546875,0.429443359375,-34.11865234375,36.9873046875,45.776363372802734,1,henrik
1772897652.0820231,1.3348388671875,0.45556640625,0.319580078125,-21.728513717651367,42.480464935302734,48.400875091552734,1,henrik
1772897652.1223698,1.2427978515625,0.373046875,0.28125,-32.8369140625,40.0390625,49.194332122802734,1,henrik
1772897652.138852,1.1204833984375,0.275634765625,0.3126220703125,-59.875484466552734,32.89794921875,48.217769622802734,1,henrik
1772897652.1834679,1.0257568359375,0.3292236328125,0.3204345703125,-42.968746185302734,22.888181686401367,14.770506858825684,1,henrik
1772897652.2131674,1.048828125,0.3760986328125,-0.0196533203125,6.469726085662842,36.9873046875,12.573241233825684,1,henrik
1772897652.2546577,0.9776611328125,0.1751708984375,0.1478271484375,-41.381832122802734,6.713866710662842,22.399900436401367,1,henrik
1772897652.292915,0.92626953125,0.32470703125,0.1947021484375,-36.7431640625,3.662109136581421,9.27734375,1,henrik
1772897652.337298,0.9637451171875,0.322509765625,0.1314697265625,-49.255367279052734,-8.9111328125,-6.591796398162842,1,henrik
1772897652.3649209,0.9697265625,0.3671875,0.0667724609375,-55.480953216552734,-17.27294921875,-10.986327171325684,1,henrik
1772897652.4243584,1.0458984375,0.402099609375,0.212158203125,-71.77734375,-21.606443405151367,-22.094724655151367,1,henrik
1772897652.4419446,0.8980712890625,0.3505859375,0.1986083984375,-62.133785247802734,-24.841306686401367,-50.048824310302734,1,henrik
1772897652.4831243,0.6656494140625,0.3109130859375,0.1240234375,-96.13036346435547,-27.221677780151367,-68.7255859375,1,henrik
1772897652.5747597,0.3974609375,0.2679443359375,0.177978515625,-65.00244140625,-24.597166061401367,-72.8759765625,1,henrik
1772897652.5774388,0.30419921875,0.0372314453125,-0.0242919921875,-52.490230560302734,-19.287109375,-76.11083984375,1,henrik
1772897652.63494,0.4007568359375,0.1297607421875,0.158447265625,-65.00244140625,-19.4091796875,-39.61181640625,1,henrik
1772897652.6373253,0.6636962890625,0.2266845703125,0.00830078125,-46.630855560302734,3.784179449081421,-11.840819358825684,1,henrik
1772897652.695547,0.7191162109375,0.2884521484375,0.0091552734375,11.352538108825684,18.5546875,5.554198741912842,1,henrik
1772897652.7532282,0.936767578125,0.2816162109375,-0.015380859375,27.587888717651367,16.357421875,11.779784202575684,1,henrik
1772897652.7532282,0.923095703125,0.3309326171875,0.0140380859375,3.479003667831421,5.249022960662842,4.2724609375,1,henrik
1772897652.8141444,0.96142578125,0.2977294921875,-0.03271484375,-2.685546636581421,1.03759765625,8.056640625,1,henrik
1772897652.9248922,0.904541015625,0.2642822265625,0.0567626953125,-16.41845703125,-6.347655773162842,9.09423828125,1,henrik
1772897652.9248922,0.9493408203125,0.343505859375,0.005615234375,-11.352538108825684,-4.08935546875,3.051757574081421,1,henrik
1772897652.9386997,0.938720703125,0.2784423828125,0.0401611328125,0.8544921278953552,-4.33349609375,1.2817381620407104,1,henrik
1772897652.9974701,0.9659423828125,0.3162841796875,0.044921875,-7.324218273162842,-8.4228515625,0.0,1,henrik
1772897653.1145413,0.9219970703125,0.27490234375,0.1092529296875,-8.544921875,-8.544921875,1.8920897245407104,1,henrik
1772897653.1145413,0.8740234375,0.281494140625,0.109130859375,-6.469726085662842,-5.859374523162842,6.774901866912842,1,henrik
1772897653.1145413,0.836181640625,0.253662109375,0.1324462890625,-2.990722417831421,-3.906249761581421,17.822265625,1,henrik
1772897653.1145413,0.7886962890625,0.256591796875,0.14013671875,-2.197265625,0.2441406100988388,27.404783248901367,1,henrik
1772897653.1738617,0.76904296875,0.3453369140625,0.0970458984375,29.907224655151367,15.319823265075684,35.94970703125,1,henrik
1772897653.2332044,0.7677001953125,0.257568359375,0.1331787109375,48.645015716552734,17.39501953125,36.376953125,1,henrik
1772897653.2985399,0.843017578125,0.3909912109375,0.0679931640625,60.546871185302734,28.198240280151367,40.527339935302734,1,henrik
1772897653.2985399,0.7803955078125,0.31689453125,0.09423828125,53.344722747802734,17.63916015625,32.470703125,1,henrik
1772897653.4157372,0.87646484375,0.439208984375,0.086181640625,42.053218841552734,23.864744186401367,43.212886810302734,1,henrik
1772897653.41665,0.8680419921875,0.35205078125,0.153564453125,37.4755859375,19.83642578125,37.04833984375,1,henrik
1772897653.41665,0.8648681640625,0.47607421875,0.0443115234375,41.748043060302734,22.033689498901367,33.935546875,1,henrik
1772897653.4705157,0.8697509765625,0.3929443359375,0.1234130859375,37.9638671875,19.47021484375,30.883787155151367,1,henrik
1772897653.4705157,0.7957763671875,0.4332275390625,0.0897216796875,36.376953125,25.268552780151367,25.207517623901367,1,henrik
1772897653.5302958,0.958251953125,0.4334716796875,0.0958251953125,29.663084030151367,12.817381858825684,25.573728561401367,1,henrik
1772897653.6552515,0.8433837890625,0.4365234375,0.076171875,33.8134765625,15.319823265075684,24.475095748901367,1,henrik
1772897653.6552515,0.976318359375,0.4593505859375,0.05029296875,16.9677734375,4.82177734375,24.780271530151367,1,henrik
1772897653.6588218,0.7613525390625,0.5003662109375,0.1021728515625,25.207517623901367,6.835937023162842,18.85986328125,1,henrik
1772897653.7140906,0.9573974609375,0.560791015625,0.0650634765625,19.04296875,-3.906249761581421,14.831542015075684,1,henrik
1772897653.7140906,0.766845703125,0.455810546875,0.1485595703125,24.414060592651367,2.868652105331421,9.033203125,1,henrik
1772897653.836382,0.90966796875,0.6229248046875,0.1014404296875,14.465331077575684,-10.681151390075684,-0.0610351525247097,1,henrik
1772897653.836382,0.84716796875,0.4822998046875,0.1611328125,3.234863042831421,-6.225585460662842,-1.2817381620407104,1,henrik
1772897653.836382,0.92822265625,0.6732177734375,0.132080078125,21.667478561401367,-11.352538108825684,-11.047362327575684,1,henrik
1772897653.9562922,0.9111328125,0.4827880859375,0.200927734375,8.4228515625,-15.686034202575684,-13.244627952575684,1,henrik
1772897653.9562922,0.86328125,0.6417236328125,0.2086181640625,22.460935592651367,-11.108397483825684,-17.4560546875,1,henrik
1772897654.0750601,0.90869140625,0.413330078125,0.232177734375,12.939452171325684,-17.39501953125,-15.808104515075684,1,henrik
1772897654.129638,0.838134765625,0.4356689453125,0.24560546875,18.61572265625,-18.4326171875,-23.376462936401367,1,henrik
1772897654.129638,0.9066162109375,0.4532470703125,0.239013671875,5.798339366912842,-16.17431640625,-26.672361373901367,1,henrik
1772897654.129638,0.8809814453125,0.29638671875,0.2481689453125,1.2817381620407104,-11.352538108825684,-15.075682640075684,1,henrik
1772897654.137764,0.9715576171875,0.4072265625,0.284912109375,0.7324218153953552,-10.559081077575684,-13.183592796325684,1,henrik
1772897654.1952686,0.9290771484375,0.324951171875,0.23486328125,-8.36181640625,-5.737304210662842,-10.009765625,1,henrik
1772897654.1952686,0.9306640625,0.4453125,0.21337890625,-12.023924827575684,-5.187987804412842,-9.765625,1,henrik
1772897654.313856,0.9327392578125,0.4578857421875,0.2313232421875,-1.3427733182907104,-3.051757574081421,-11.657713890075684,1,henrik
1772897654.313856,0.9368896484375,0.4815673828125,0.215087890625,-12.451170921325684,-5.859374523162842,-12.451170921325684,1,henrik
1772897654.313856,0.956298828125,0.53369140625,0.1971435546875,2.685546636581421,-5.981444835662842,-14.831542015075684,1,henrik
1772897654.4958465,0.970947265625,0.4833984375,0.2591552734375,12.084959983825684,-3.601073980331421,-15.441893577575684,1,henrik
1772897654.6786125,0.97314453125,0.47998046875,0.2196044921875,6.530761241912842,-4.39453125,-19.53125,1,henrik
1772897654.7960997,0.9541015625,0.451416015625,0.2388916015625,0.4272460639476776,-2.50244140625,-18.73779296875,1,henrik
1772897654.7960997,0.9110107421875,0.3641357421875,0.2947998046875,-15.991209983825684,-5.798339366912842,-20.080564498901367,1,henrik
1772897654.7960997,0.9366455078125,0.340576171875,0.2725830078125,-9.521484375,-2.38037109375,-14.465331077575684,1,henrik
1772897654.7986884,0.9285888671875,0.3624267578125,0.240478515625,-1.5258787870407104,-1.03759765625,-5.310058116912842,1,henrik
1772897654.854924,0.9384765625,0.4027099609375,0.209716796875,-5.554198741912842,-5.432128429412842,-5.249022960662842,1,henrik
1772897654.854924,0.8978271484375,0.3485107421875,0.2412109375,-13.977049827575684,-6.774901866912842,-7.995604991912842,1,henrik
1772897654.914475,0.8946533203125,0.33154296875,0.285400390625,-5.737304210662842,-3.662109136581421,-11.901854515075684,1,henrik
1772897654.975172,0.916259765625,0.2996826171875,0.258544921875,-9.58251953125,-1.8920897245407104,-9.94873046875,1,henrik
1772897654.975172,0.936767578125,0.3297119140625,0.2974853515625,4.33349609375,2.50244140625,-7.995604991912842,1,henrik
1772897655.036368,0.953125,0.310546875,0.232666015625,-2.746581792831421,2.25830078125,-5.065917491912842,1,henrik
1772897655.0891945,0.9627685546875,0.3367919921875,0.2625732421875,2.25830078125,2.38037109375,-3.601073980331421,1,henrik
1772897655.0974662,1.0302734375,0.3909912109375,0.250244140625,-1.2817381620407104,5.554198741912842,0.7934569716453552,1,henrik
1772897655.1555333,1.1234130859375,0.432861328125,0.2593994140625,-13.061522483825684,12.451170921325684,6.408690929412842,1,henrik
1772897655.2770684,1.22412109375,0.5452880859375,0.2689208984375,-12.756346702575684,27.526853561401367,18.798828125,1,henrik
1772897655.2770684,1.2843017578125,0.4666748046875,0.241943359375,-44.555660247802734,35.400390625,24.963376998901367,1,henrik
1772897655.2805238,1.27587890625,0.6981201171875,0.1123046875,-57.434078216552734,32.958984375,33.203125,1,henrik
1772897655.3352404,1.2952880859375,0.5362548828125,0.114501953125,-10.437010765075684,35.888671875,33.63037109375,1,henrik
1772897655.3921258,1.204833984375,0.636962890625,0.161865234375,6.713866710662842,33.38623046875,15.258788108825684,1,henrik
1772897655.3921258,1.154541015625,0.56982421875,0.0272216796875,54.382320404052734,20.080564498901367,-2.25830078125,1,henrik
1772897655.4552858,0.9139404296875,0.2139892578125,0.01708984375,82.33641815185547,18.61572265625,-8.6669921875,1,henrik
1772897655.4552858,0.8450927734375,0.7232666015625,0.2557373046875,241.63816833496094,-46.569820404052734,-43.884273529052734,1,henrik
1772897655.5140064,0.4964599609375,0.0386962890625,0.026123046875,270.8740234375,-39.12353515625,-42.114253997802734,1,henrik
1772897655.5140064,0.5611572265625,-0.5267333984375,-0.019287109375,-104.67528533935547,5.493163585662842,-23.681638717651367,1,henrik
1772897655.5767117,0.5455322265625,0.7393798828125,0.5198974609375,-39.9169921875,-13.610838890075684,-24.230955123901367,1,henrik
1772897655.635854,0.6219482421875,-0.21533203125,0.1229248046875,101.37938690185547,-17.88330078125,-38.57421875,1,henrik
1772897655.635854,0.804443359375,0.126220703125,0.3077392578125,-32.53173828125,-4.638671875,-21.667478561401367,1,henrik
1772897655.6959224,1.0294189453125,0.1114501953125,0.3131103515625,-18.310546875,-13.854979515075684,-5.432128429412842,1,henrik
1772897655.8155084,1.12939453125,0.2564697265625,0.3553466796875,-60.607906341552734,-16.4794921875,-5.615233898162842,1,henrik
1772897655.8155084,1.1572265625,0.3011474609375,0.3665771484375,-50.598140716552734,-7.568358898162842,-3.173827886581421,1,henrik
1772897655.8155084,1.2117919921875,0.264404296875,0.431640625,-75.98876953125,-7.873534679412842,-10.437010765075684,1,henrik
1772897655.8756175,1.09326171875,0.30126953125,0.4486083984375,-96.55760955810547,-10.620116233825684,-17.27294921875,1,henrik
1772897655.9337866,1.0977783203125,0.22705078125,0.355712890625,-96.55760955810547,1.5869139432907104,-23.498533248901367,1,henrik
1772897656.0553648,1.029052734375,0.18701171875,0.4019775390625,-102.72216033935547,-3.295898199081421,-32.3486328125,1,henrik
1772897656.0553648,0.8572998046875,0.204345703125,0.3104248046875,-101.92870330810547,9.82666015625,-33.14208984375,1,henrik
1772897656.0588775,0.901123046875,0.0980224609375,0.24169921875,-87.21923065185547,8.1787109375,-32.16552734375,1,henrik
1772897656.0588775,0.6739501953125,0.2236328125,0.2928466796875,-77.45361328125,14.282225608825684,-38.39111328125,1,henrik
1772897656.1141586,0.8109130859375,0.0693359375,0.1715087890625,-47.119136810302734,23.193357467651367,-22.155759811401367,1,henrik
1772897656.1141586,0.703857421875,0.237060546875,0.190185546875,-65.4296875,17.7001953125,-37.841796875,1,henrik
1772897656.174746,0.7291259765625,0.1658935546875,0.094970703125,9.09423828125,34.72900390625,-17.7001953125,1,henrik
1772897656.174746,0.778076171875,0.169921875,0.021484375,12.145995140075684,30.761716842651367,-19.95849609375,1,henrik
1772897656.2925215,0.8564453125,0.22900390625,0.0390625,6.103515148162842,20.263669967651367,0.4272460639476776,1,henrik
1772897656.2925215,0.8656005859375,0.1708984375,0.042724609375,-4.33349609375,12.268065452575684,5.493163585662842,1,henrik
1772897656.2925215,0.9132080078125,0.318115234375,0.0086669921875,-16.4794921875,2.685546636581421,9.521484375,1,henrik
1772897656.3556678,0.9031982421875,0.2095947265625,0.05615234375,-12.268065452575684,-0.54931640625,13.183592796325684,1,henrik
1772897656.41466,0.9278564453125,0.3070068359375,0.0028076171875,-9.8876953125,-1.5869139432907104,14.221190452575684,1,henrik
1772897656.4171069,0.9405517578125,0.3065185546875,0.0389404296875,-1.3427733182907104,-1.5869139432907104,14.953612327575684,1,henrik
1772897656.595386,0.9278564453125,0.2725830078125,0.039794921875,2.01416015625,-2.38037109375,9.58251953125,1,henrik
1772897656.595386,0.96630859375,0.2911376953125,0.0296630859375,6.713866710662842,-2.685546636581421,7.324218273162842,1,henrik
1772897656.5986474,0.9332275390625,0.3048095703125,0.0877685546875,-5.310058116912842,-7.629394054412842,5.554198741912842,1,henrik
1772897656.5986474,0.948974609375,0.2408447265625,0.1087646484375,1.3427733182907104,-6.774901866912842,4.82177734375,1,henrik
1772897656.837235,0.9210205078125,0.271240234375,0.0850830078125,3.417968511581421,-6.225585460662842,8.9111328125,1,henrik
1772897656.837235,0.9588623046875,0.2510986328125,0.116943359375,4.5166015625,-6.774901866912842,10.986327171325684,1,henrik
1772897656.837235,0.90771484375,0.2989501953125,0.1304931640625,5.615233898162842,-9.6435546875,8.97216796875,1,henrik
1772897656.8392396,0.893310546875,0.2371826171875,0.12890625,6.408690929412842,-9.1552734375,18.4326171875,1,henrik
1772897656.9553301,0.7047119140625,0.2969970703125,0.180908203125,15.258788108825684,1.15966796875,39.1845703125,1,henrik
1772897656.9553301,0.8173828125,0.4302978515625,0.179443359375,33.3251953125,8.36181640625,47.485347747802734,1,henrik
1772897656.9583964,0.6671142578125,0.40771484375,0.1678466796875,54.260250091552734,7.812499523162842,43.823238372802734,1,henrik
1772897657.0763326,0.797119140625,0.4344482421875,0.130615234375,63.476558685302734,13.305663108825684,44.250484466552734,1,henrik
1772897657.0775437,0.699462890625,0.4361572265625,0.1881103515625,48.034664154052734,12.634276390075684,41.320796966552734,1,henrik
1772897657.080717,0.789306640625,0.3779296875,0.1431884765625,45.898433685302734,11.413573265075684,38.63525390625,1,henrik
1772897657.1378043,0.7603759765625,0.485595703125,0.213134765625,37.109375,12.084959983825684,32.958984375,1,henrik
1772897657.1381366,0.8262939453125,0.4462890625,0.106201171875,35.70556640625,17.63916015625,23.742673873901367,1,henrik
1772897657.196419,0.8551025390625,0.4736328125,0.1903076171875,25.512693405151367,3.601073980331421,17.88330078125,1,henrik
1772897657.3151073,0.98046875,0.4241943359375,0.2174072265625,9.33837890625,6.408690929412842,11.718749046325684,1,henrik
1772897657.3151073,0.9019775390625,0.4677734375,0.158203125,5.737304210662842,-7.141112804412842,-3.601073980331421,1,henrik
1772897657.3151073,0.9544677734375,0.3897705078125,0.19482421875,1.7700194120407104,1.8310545682907104,-1.2817381620407104,1,henrik
1772897657.3717575,0.9056396484375,0.3980712890625,0.213623046875,-1.5258787870407104,-10.803221702575684,-8.7890625,1,henrik
1772897657.3717575,0.842529296875,0.409423828125,0.16455078125,7.202147960662842,7.568358898162842,-16.90673828125,1,henrik
1772897657.557055,0.974609375,0.498779296875,0.1885986328125,13.793944358825684,-4.0283203125,-19.6533203125,1,henrik
1772897657.557055,0.9095458984375,0.3011474609375,0.1805419921875,24.963376998901367,10.437010765075684,-21.911619186401367,1,henrik
1772897657.5582712,0.986328125,0.425048828125,0.138427734375,11.047362327575684,-2.3193359375,-23.742673873901367,1,henrik
1772897657.5582712,0.961669921875,0.330810546875,0.25537109375,11.718749046325684,-2.624511480331421,-18.24951171875,1,henrik
1772897657.615934,1.00439453125,0.37646484375,0.134521484375,-7.690429210662842,-2.746581792831421,-23.132322311401367,1,henrik
1772897657.615934,1.0069580078125,0.5084228515625,0.260986328125,-15.808104515075684,-15.441893577575684,-20.812986373901367,1,henrik
1772897657.736246,0.96826171875,0.3304443359375,0.2066650390625,7.385253429412842,-12.084959983825684,-18.37158203125,1,henrik
1772897657.736246,1.025146484375,0.417236328125,0.3236083984375,-31.738279342651367,-23.376462936401367,-20.568845748901367,1,henrik
1772897657.7386544,0.9840087890625,0.34619140625,0.212646484375,-27.893064498901367,-18.49365234375,-11.596678733825684,1,henrik
1772897657.7957196,1.0135498046875,0.417236328125,0.288818359375,-13.244627952575684,-17.578125,-14.526366233825684,1,henrik
1772897657.8563392,0.9671630859375,0.385498046875,0.2930908203125,5.310058116912842,-13.671874046325684,-16.29638671875,1,henrik
1772897657.8573449,0.9500732421875,0.3148193359375,0.3385009765625,-4.8828125,-14.526366233825684,-19.287109375,1,henrik
1772897657.915809,0.973388671875,0.3369140625,0.3431396484375,-7.019042491912842,-11.108397483825684,-19.10400390625,1,henrik
1772897657.974276,0.9473876953125,0.3504638671875,0.296630859375,7.263183116912842,-5.859374523162842,-19.47021484375,1,henrik
1772897657.974276,0.9630126953125,0.24658203125,0.35986328125,-4.33349609375,-6.286620616912842,-18.798828125,1,henrik
1772897658.0356889,0.96923828125,0.3638916015625,0.31640625,-22.705076217651367,-9.46044921875,-14.465331077575684,1,henrik
1772897658.0933301,0.974365234375,0.3809814453125,0.2451171875,-18.24951171875,-13.793944358825684,-12.695311546325684,1,henrik
1772897658.0933301,0.952880859375,0.355224609375,0.309814453125,-12.207030296325684,-16.54052734375,-21.911619186401367,1,henrik
1772897658.1555939,0.958984375,0.3206787109375,0.2420654296875,-14.282225608825684,-15.380858421325684,-25.329587936401367,1,henrik
1772897658.2165294,0.9527587890625,0.3009033203125,0.3360595703125,-15.258788108825684,-15.136717796325684,-27.404783248901367,1,henrik
1772897658.2745984,0.9716796875,0.2896728515625,0.315185546875,-11.352538108825684,-12.390135765075684,-23.559568405151367,1,henrik
1772897658.336487,0.988525390625,0.24658203125,0.31005859375,-1.3427733182907104,-6.835937023162842,-19.59228515625,1,henrik
1772897658.336487,0.977783203125,0.2333984375,0.3565673828125,0.8544921278953552,-2.197265625,-10.986327171325684,1,henrik
1772897658.336487,0.9771728515625,0.23681640625,0.32958984375,-5.0048828125,-3.173827886581421,-5.126952648162842,1,henrik
1772897658.395085,0.9637451171875,0.2469482421875,0.3114013671875,-7.934569835662842,1.3427733182907104,-0.9765624403953552,1,henrik
1772897658.4558733,0.9437255859375,0.2431640625,0.3310546875,-3.723144292831421,2.0751953125,0.7934569716453552,1,henrik
1772897658.5114112,0.953369140625,0.2469482421875,0.2593994140625,0.1831054538488388,1.6479490995407104,0.8544921278953552,1,henrik
1772897658.6363432,0.9456787109375,0.2259521484375,0.345947265625,-0.1220703050494194,2.868652105331421,3.234863042831421,1,henrik
1772897658.6363432,0.9739990234375,0.2593994140625,0.31298828125,2.624511480331421,3.051757574081421,5.798339366912842,1,henrik
1772897658.6363432,0.9942626953125,0.2513427734375,0.32861328125,-6.774901866912842,4.21142578125,12.634276390075684,1,henrik
1772897658.6363432,1.04541015625,0.2965087890625,0.378662109375,-11.230467796325684,10.498045921325684,17.76123046875,1,henrik
1772897658.6953838,1.2513427734375,0.42138671875,0.380126953125,-13.061522483825684,36.19384765625,35.09521484375,1,henrik
1772897658.753457,1.2979736328125,0.652099609375,0.2564697265625,-14.587401390075684,38.75732421875,46.264644622802734,1,henrik
1772897658.753457,1.3043212890625,0.595703125,0.2958984375,14.892577171325684,39.4287109375,61.035152435302734,1,henrik
1772897658.8158758,1.24462890625,0.541259765625,0.348388671875,-17.822265625,43.029781341552734,57.067867279052734,1,henrik
1772897658.8708768,1.208984375,0.5711669921875,0.151123046875,-7.446288585662842,44.982906341552734,43.395992279052734,1,henrik
1772897658.8774235,1.1712646484375,0.4154052734375,0.0919189453125,-12.939452171325684,42.907711029052734,44.433589935302734,1,henrik
1772897658.93501,1.05029296875,0.391357421875,0.0819091796875,-40.527339935302734,37.65869140625,26.000974655151367,1,henrik
1772897658.9943745,1.046875,0.3897705078125,0.0335693359375,-40.588375091552734,30.090330123901367,5.554198741912842,1,henrik
1772897658.9943745,0.980712890625,0.408203125,0.0692138671875,-11.962889671325684,22.033689498901367,-14.343260765075684,1,henrik
1772897659.056567,1.0391845703125,0.2762451171875,0.001953125,-6.225585460662842,10.803221702575684,-29.235837936401367,1,henrik
1772897659.1749823,0.96728515625,0.2047119140625,0.02783203125,-19.47021484375,-7.507323741912842,-40.466304779052734,1,henrik
1772897659.1749823,0.8870849609375,0.2813720703125,0.088134765625,-30.212400436401367,-18.06640625,-54.382320404052734,1,henrik
1772897659.1749823,0.776611328125,0.133056640625,-0.034423828125,-38.02490234375,-28.625486373901367,-62.255855560302734,1,henrik
1772897659.2366092,0.6903076171875,0.3321533203125,0.0537109375,-54.809566497802734,-35.09521484375,-65.36865234375,1,henrik
1772897659.2366092,0.5516357421875,0.088623046875,0.10498046875,-52.917476654052734,-32.3486328125,-65.85693359375,1,henrik
1772897659.2954323,0.291259765625,0.0908203125,0.19970703125,-99.79247283935547,-28.747556686401367,-73.1201171875,1,henrik
1772897659.3544438,0.41455078125,0.115966796875,-0.02099609375,-73.486328125,-14.709471702575684,-55.847164154052734,1,henrik
1772897659.357217,0.4964599609375,0.1834716796875,0.127197265625,-77.2705078125,-7.446288585662842,-45.166011810302734,1,henrik
1772897659.4143689,0.7760009765625,0.544921875,-0.12841796875,40.588375091552734,21.789548873901367,3.173827886581421,1,henrik
1772897659.4758427,0.9515380859375,0.25830078125,-0.0360107421875,55.053707122802734,17.822265625,12.695311546325684,1,henrik
1772897659.4758427,0.95751953125,0.2930908203125,0.063720703125,4.82177734375,0.6103515625,15.747069358825684,1,henrik
1772897659.5954366,0.953125,0.3486328125,0.0203857421875,4.7607421875,-0.4272460639476776,9.94873046875,1,henrik
1772897659.5954366,0.9619140625,0.2308349609375,0.0025634765625,1.8310545682907104,-1.220703125,3.784179449081421,1,henrik
1772897659.5990744,0.97509765625,0.318115234375,0.0111083984375,7.507323741912842,-0.1831054538488388,2.807616949081421,1,henrik
1772897659.6545846,0.9775390625,0.2579345703125,0.0499267578125,0.3662109076976776,-1.220703125,7.568358898162842,1,henrik
1772897659.7753434,0.947509765625,0.236083984375,0.0439453125,-4.57763671875,-2.13623046875,6.652831554412842,1,henrik
1772897659.7753434,0.96728515625,0.243896484375,0.0606689453125,-1.5258787870407104,-2.990722417831421,4.150390625,1,henrik
1772897659.778606,0.9849853515625,0.2847900390625,0.0712890625,-5.920409679412842,-2.563476324081421,1.7700194120407104,1,henrik
1772897660.016053,0.9554443359375,0.2127685546875,0.07080078125,-2.685546636581421,-1.5258787870407104,1.0986328125,1,henrik
1772897660.016053,0.9703369140625,0.269287109375,0.0810546875,-2.44140625,-0.4882812201976776,1.9531248807907104,1,henrik
1772897660.0168371,0.9678955078125,0.2576904296875,0.06787109375,2.13623046875,1.8920897245407104,0.6103515625,1,henrik
1772897660.0168371,0.9410400390625,0.27978515625,0.040283203125,3.601073980331421,1.4038084745407104,2.807616949081421,1,henrik
1772897660.0199754,0.8194580078125,0.2298583984375,0.0244140625,22.460935592651367,7.019042491912842,31.188962936401367,1,henrik
1772897660.075338,0.772705078125,0.3145751953125,0.0640869140625,36.1328125,10.620116233825684,46.447750091552734,1,henrik
1772897660.1936908,0.6761474609375,0.314208984375,0.016845703125,52.124019622802734,20.080564498901367,54.870601654052734,1,henrik
1772897660.1936908,0.760498046875,0.31494140625,-0.002197265625,36.31591796875,11.413573265075684,66.46728515625,1,henrik
1772897660.3103018,0.7471923828125,0.4962158203125,0.03076171875,29.235837936401367,16.41845703125,70.9228515625,1,henrik
1772897660.375031,0.75,0.415771484375,-0.00048828125,48.400875091552734,8.48388671875,61.279293060302734,1,henrik
1772897660.375031,0.8282470703125,0.4810791015625,0.043212890625,36.92626953125,13.122557640075684,56.396480560302734,1,henrik
1772897660.375031,0.77734375,0.4700927734375,0.069580078125,24.475095748901367,3.173827886581421,45.410152435302734,1,henrik
1772897660.375031,0.8387451171875,0.528564453125,0.0604248046875,32.5927734375,15.319823265075684,41.809078216552734,1,henrik
1772897660.436522,0.7906494140625,0.4951171875,0.146728515625,20.996091842651367,14.892577171325684,31.249998092651367,1,henrik
1772897660.5483778,0.915283203125,0.5740966796875,0.057373046875,14.221190452575684,9.70458984375,18.37158203125,1,henrik
1772897660.6129797,0.76318359375,0.462158203125,0.0850830078125,9.1552734375,12.939452171325684,17.51708984375,1,henrik
1772897660.6129797,1.0166015625,0.676513671875,0.0369873046875,-30.151365280151367,-2.624511480331421,15.747069358825684,1,henrik
1772897660.6737728,0.7420654296875,0.540771484375,0.1134033203125,9.46044921875,5.798339366912842,7.507323741912842,1,henrik
1772897660.6737728,0.982421875,0.6976318359375,-0.021484375,28.015134811401367,-2.3193359375,-5.798339366912842,1,henrik
1772897660.6775932,0.6929931640625,0.48486328125,0.1029052734375,0.7934569716453552,-4.0283203125,-7.873534679412842,1,henrik
1772897660.916233,0.938720703125,0.6611328125,0.0509033203125,9.46044921875,-4.2724609375,-14.221190452575684,1,henrik
1772897660.916233,0.7657470703125,0.4598388671875,0.1058349609375,28.320310592651367,-7.080077648162842,-17.2119140625,1,henrik
1772897660.916233,0.9578857421875,0.5908203125,0.056884765625,10.681151390075684,-5.676269054412842,-9.6435546875,1,henrik
1772897660.9764383,0.835205078125,0.513916015625,0.141357421875,18.49365234375,-7.263183116912842,-13.305663108825684,1,henrik
1772897661.0314612,0.89990234375,0.5555419921875,0.15625,10.498045921325684,-6.652831554412842,-10.070799827575684,1,henrik
1772897661.0314612,0.902587890625,0.604248046875,0.130126953125,8.1787109375,-4.7607421875,-15.380858421325684,1,henrik
1772897661.0396037,0.908447265625,0.562744140625,0.122314453125,15.747069358825684,-3.051757574081421,-14.282225608825684,1,henrik
1772897661.0948348,0.86279296875,0.5279541015625,0.1524658203125,5.920409679412842,-3.723144292831421,-17.4560546875,1,henrik
1772897661.2756193,0.874755859375,0.4859619140625,0.1455078125,11.230467796325684,-3.112792730331421,-20.141599655151367,1,henrik
1772897661.3378196,0.8724365234375,0.45556640625,0.16015625,-1.03759765625,-6.591796398162842,-18.5546875,1,henrik
1772897661.3378196,0.9149169921875,0.4881591796875,0.160888671875,0.4272460639476776,-9.09423828125,-12.512206077575684,1,henrik
1772897661.4481874,0.92724609375,0.4549560546875,0.1844482421875,-6.713866710662842,-10.925292015075684,-8.48388671875,1,henrik
1772897661.4481874,0.883544921875,0.5384521484375,0.171875,-5.493163585662842,-9.8876953125,-8.85009765625,1,henrik
1772897661.4481874,0.920654296875,0.4871826171875,0.1932373046875,-8.48388671875,-6.713866710662842,-11.535643577575684,1,henrik
1772897661.4481874,0.893798828125,0.4847412109375,0.2152099609375,-5.676269054412842,-2.563476324081421,-12.817381858825684,1,henrik
1772897661.5166075,0.8887939453125,0.445556640625,0.1822509765625,-1.03759765625,-0.7934569716453552,-20.01953125,1,henrik
1772897661.5769427,0.89599609375,0.464599609375,0.16943359375,1.7089842557907104,-2.25830078125,-21.362302780151367,1,henrik
1772897661.5769427,0.93017578125,0.399658203125,0.2159423828125,-5.554198741912842,-4.0283203125,-21.057126998901367,1,henrik
1772897661.637307,0.92626953125,0.4176025390625,0.1951904296875,-15.441893577575684,-4.39453125,-18.06640625,1,henrik
1772897661.6951187,0.9307861328125,0.4326171875,0.1904296875,-9.765625,-2.624511480331421,-18.37158203125,1,henrik
1772897661.6951187,0.9195556640625,0.4080810546875,0.170654296875,-6.347655773162842,-3.295898199081421,-15.563963890075684,1,henrik
1772897661.7562528,0.9329833984375,0.37109375,0.1754150390625,-2.624511480331421,-2.624511480331421,-16.2353515625,1,henrik
1772897661.815382,0.917236328125,0.388427734375,0.1729736328125,-0.7324218153953552,-5.187987804412842,-15.624999046325684,1,henrik
1772897661.815382,0.922607421875,0.33447265625,0.1961669921875,-10.375975608825684,-6.591796398162842,-14.038084983825684,1,henrik
1772897661.873796,0.919921875,0.3631591796875,0.1907958984375,-16.29638671875,-5.554198741912842,-16.357421875,1,henrik
1772897661.990738,0.940673828125,0.3543701171875,0.188720703125,-19.59228515625,-5.187987804412842,-16.11328125,1,henrik
1772897661.990738,0.9453125,0.3350830078125,0.2222900390625,-6.591796398162842,-5.737304210662842,-12.084959983825684,1,henrik
1772897662.0559268,0.95556640625,0.30615234375,0.2061767578125,-2.929687261581421,-3.051757574081421,-11.291502952575684,1,henrik
1772897662.0559268,1.0382080078125,0.3900146484375,0.2388916015625,-6.408690929412842,0.4882812201976776,-4.39453125,1,henrik
1772897662.0559268,1.179931640625,0.48193359375,0.2022705078125,-11.657713890075684,9.765625,9.521484375,1,henrik
1772897662.113983,1.24609375,0.51806640625,0.0970458984375,7.934569835662842,23.376462936401367,21.240232467651367,1,henrik
1772897662.1740458,1.3251953125,0.62646484375,0.14404296875,-1.5258787870407104,26.489255905151367,35.70556640625,1,henrik
1772897662.1740458,1.3778076171875,0.659912109375,0.0703125,17.822265625,33.935546875,40.344234466552734,1,henrik
1772897662.2370117,1.3929443359375,0.6700439453125,0.1768798828125,-11.108397483825684,34.1796875,54.565425872802734,1,henrik
1772897662.292224,1.378662109375,0.5975341796875,0.05615234375,-20.01953125,38.02490234375,57.250972747802734,1,henrik
1772897662.292224,1.366455078125,0.645751953125,0.08642578125,-46.203609466552734,38.330078125,47.546382904052734,1,henrik
1772897662.3551698,1.3135986328125,0.4852294921875,-0.0184326171875,-6.591796398162842,38.14697265625,23.864744186401367,1,henrik
1772897662.476234,1.252685546875,0.4208984375,0.008056640625,-3.479003667831421,25.085447311401367,0.0,1,henrik
1772897662.476234,1.0107421875,0.15185546875,0.058349609375,-17.51708984375,1.220703125,-44.006343841552734,1,henrik
1772897662.4779818,0.8529052734375,0.16943359375,0.1241455078125,-60.119625091552734,-14.404295921325684,-72.1435546875,1,henrik
1772897662.4779818,0.5653076171875,0.3321533203125,0.0205078125,-23.681638717651367,-21.545408248901367,-104.67528533935547,1,henrik
1772897662.53651,0.5550537109375,0.3450927734375,-0.103271484375,2.868652105331421,-11.352538108825684,-111.02294158935547,1,henrik
1772897662.591191,-0.0811767578125,-0.322021484375,0.223388671875,-19.10400390625,-41.564937591552734,-134.33837890625,1,henrik
1772897662.6577609,0.35498046875,0.2359619140625,0.2525634765625,-137.6953125,-45.715328216552734,-97.53417205810547,1,henrik
1772897662.6577609,0.3297119140625,-0.0482177734375,0.1278076171875,-117.49266815185547,-12.390135765075684,-45.410152435302734,1,henrik
1772897662.7169337,0.68359375,0.4578857421875,-0.0966796875,-53.344722747802734,-5.310058116912842,-17.15087890625,1,henrik
1772897662.8365269,0.8865966796875,0.40966796875,-0.066650390625,88.80614471435547,28.137205123901367,11.291502952575684,1,henrik
1772897662.8365269,1.0296630859375,0.1036376953125,-0.010986328125,6.774901866912842,-1.03759765625,14.892577171325684,1,henrik
1772897662.8365269,0.9884033203125,0.3211669921875,0.017333984375,-11.169432640075684,-7.995604991912842,9.6435546875,1,henrik
1772897662.8365269,0.96533203125,0.202392578125,0.0189208984375,2.3193359375,-6.713866710662842,-3.784179449081421,1,henrik
1772897662.9534755,0.9989013671875,0.197021484375,0.01416015625,-2.563476324081421,-7.751464366912842,-0.6713866591453552,1,henrik
1772897662.9534755,0.951171875,0.1368408203125,0.01220703125,3.967284917831421,-3.234863042831421,3.234863042831421,1,henrik
1772897663.0146801,0.9970703125,0.1937255859375,0.05322265625,-2.25830078125,-5.065917491912842,7.995604991912842,1,henrik
1772897663.0146801,0.9566650390625,0.160888671875,0.06884765625,-7.812499523162842,-8.97216796875,8.60595703125,1,henrik
1772897663.0752487,0.9744873046875,0.216064453125,0.0716552734375,-3.417968511581421,-5.371093273162842,10.375975608825684,1,henrik
1772897663.0752487,0.931396484375,0.1953125,0.0472412109375,6.896972179412842,-4.150390625,11.718749046325684,1,henrik
1772897663.137775,0.9183349609375,0.1859130859375,0.1322021484375,11.413573265075684,-0.4882812201976776,20.812986373901367,1,henrik
1772897663.1963255,0.8858642578125,0.218505859375,0.097900390625,25.024412155151367,2.929687261581421,28.320310592651367,1,henrik
1772897663.1973333,0.84130859375,0.280517578125,0.103759765625,43.151851654052734,11.413573265075684,41.381832122802734,1,henrik
1772897663.25607,0.8232421875,0.2049560546875,0.110595703125,57.067867279052734,15.808104515075684,50.170894622802734,1,henrik
1772897663.3172832,0.8875732421875,0.27294921875,0.0853271484375,29.785154342651367,11.169432640075684,43.395992279052734,1,henrik
1772897663.3172832,0.8253173828125,0.295654296875,0.064453125,34.24072265625,13.610838890075684,44.250484466552734,1,henrik
1772897663.3759768,0.900146484375,0.224365234375,0.0484619140625,40.405269622802734,7.141112804412842,44.006343841552734,1,henrik
1772897663.433817,0.7864990234375,0.3746337890625,0.10595703125,14.831542015075684,11.962889671325684,51.330562591552734,1,henrik
1772897663.4965658,0.88037109375,0.333984375,0.0701904296875,46.752925872802734,11.657713890075684,40.10009765625,1,henrik
1772897663.4976323,0.8248291015625,0.3499755859375,0.0755615234375,29.418943405151367,18.12744140625,45.898433685302734,1,henrik
1772897663.5549026,1.004638671875,0.4833984375,0.0916748046875,30.151365280151367,12.939452171325684,34.7900390625,1,henrik
1772897663.5549026,0.8389892578125,0.368896484375,0.0592041015625,34.0576171875,15.197752952575684,29.724119186401367,1,henrik
1772897663.6163242,0.953125,0.4794921875,0.0771484375,19.22607421875,9.33837890625,24.719236373901367,1,henrik
1772897663.6771138,0.876708984375,0.423583984375,0.039794921875,20.446775436401367,7.385253429412842,24.291990280151367,1,henrik
1772897663.6771138,0.9566650390625,0.46435546875,0.0660400390625,4.82177734375,0.7324218153953552,23.742673873901367,1,henrik
1772897663.7327478,0.897705078125,0.5205078125,0.0823974609375,5.920409679412842,-4.150390625,15.991209983825684,1,henrik
1772897663.795464,0.84326171875,0.4803466796875,0.0711669921875,11.657713890075684,-2.50244140625,15.563963890075684,1,henrik
1772897663.795464,0.9219970703125,0.5799560546875,0.0775146484375,11.901854515075684,-8.1787109375,5.126952648162842,1,henrik
1772897663.8560965,0.8304443359375,0.4952392578125,0.083740234375,17.63916015625,-6.408690929412842,4.69970703125,1,henrik
1772897663.910946,0.9263916015625,0.4990234375,0.1552734375,7.995604991912842,-10.192870140075684,2.38037109375,1,henrik
1772897663.910946,0.8223876953125,0.505615234375,0.1097412109375,4.33349609375,-9.21630859375,-4.82177734375,1,henrik
1772897664.0364072,0.9837646484375,0.5546875,0.134521484375,3.601073980331421,-7.873534679412842,-0.8544921278953552,1,henrik
1772897664.0364072,0.8809814453125,0.4451904296875,0.1671142578125,5.249022960662842,-10.498045921325684,-5.0048828125,1,henrik
1772897664.0376046,0.948974609375,0.5543212890625,0.1029052734375,2.868652105331421,-7.934569835662842,-4.2724609375,1,henrik
1772897664.0950797,0.9254150390625,0.527587890625,0.148193359375,11.352538108825684,-8.544921875,-5.187987804412842,1,henrik
1772897664.1528192,0.8834228515625,0.520751953125,0.132080078125,8.7890625,-12.939452171325684,-9.1552734375,1,henrik
1772897664.2091782,0.8653564453125,0.5240478515625,0.17578125,4.2724609375,-11.230467796325684,-11.596678733825684,1,henrik
1772897664.2091782,0.832275390625,0.5054931640625,0.142578125,4.638671875,-4.08935546875,-19.1650390625,1,henrik
1772897664.2763317,0.9278564453125,0.49658203125,0.169189453125,7.202147960662842,-0.9155272841453552,-15.075682640075684,1,henrik
1772897664.2763317,0.878173828125,0.402587890625,0.180419921875,11.596678733825684,2.197265625,-11.657713890075684,1,henrik
1772897664.393038,0.921875,0.48486328125,0.1507568359375,3.967284917831421,0.1220703050494194,-11.047362327575684,1,henrik
1772897664.6366177,0.9090576171875,0.4375,0.165283203125,0.1220703050494194,-0.8544921278953552,-7.263183116912842,1,henrik
1772897664.6366177,0.9100341796875,0.4285888671875,0.204833984375,6.774901866912842,-1.4038084745407104,-5.676269054412842,1,henrik
1772897664.6366177,0.9298095703125,0.482421875,0.1661376953125,4.39453125,-6.469726085662842,-5.981444835662842,1,henrik
1772897664.6905847,0.9052734375,0.4334716796875,0.2213134765625,2.929687261581421,-7.324218273162842,-7.873534679412842,1,henrik
1772897664.7563698,0.8919677734375,0.3946533203125,0.2330322265625,-6.896972179412842,-7.751464366912842,-9.58251953125,1,henrik
1772897664.757055,0.8868408203125,0.394287109375,0.224609375,-1.8310545682907104,-8.23974609375,-5.676269054412842,1,henrik
1772897664.757055,0.8790283203125,0.3585205078125,0.245361328125,-6.347655773162842,-6.958007335662842,-5.126952648162842,1,henrik
1772897664.8752115,0.876708984375,0.415283203125,0.1953125,5.554198741912842,-3.540038824081421,-6.164550304412842,1,henrik
1772897664.9956615,0.888671875,0.396240234375,0.2335205078125,-4.21142578125,-4.82177734375,-4.0283203125,1,henrik
1772897664.9956615,0.8968505859375,0.403076171875,0.2166748046875,3.112792730331421,-1.7700194120407104,-8.97216796875,1,henrik
1772897664.9976146,0.90673828125,0.450927734375,0.2099609375,5.798339366912842,-6.042479991912842,-9.8876953125,1,henrik
1772897664.9983487,0.9254150390625,0.3992919921875,0.2119140625,2.13623046875,-7.019042491912842,-11.413573265075684,1,henrik
1772897665.0566146,0.923583984375,0.40771484375,0.2493896484375,-1.7089842557907104,-8.6669921875,-16.29638671875,1,henrik
1772897665.0566146,0.927978515625,0.3712158203125,0.2747802734375,-8.97216796875,-5.737304210662842,-15.808104515075684,1,henrik
1772897665.1139314,0.9390869140625,0.3597412109375,0.2530517578125,-5.981444835662842,-3.662109136581421,-14.465331077575684,1,henrik
1772897665.175474,0.9283447265625,0.357421875,0.2576904296875,-4.45556640625,0.54931640625,-14.709471702575684,1,henrik
1772897665.175474,0.931396484375,0.3470458984375,0.253662109375,-6.103515148162842,2.0751953125,-12.451170921325684,1,henrik
1772897665.2366016,0.933837890625,0.3304443359375,0.2435302734375,11.901854515075684,4.57763671875,-15.014647483825684,1,henrik
1772897665.2945673,0.9735107421875,0.34228515625,0.2427978515625,1.4648436307907104,0.4272460639476776,-10.559081077575684,1,henrik
1772897665.2945673,0.973876953125,0.32666015625,0.2662353515625,-4.39453125,-1.8310545682907104,-6.835937023162842,1,henrik
1772897665.3550973,0.98779296875,0.34423828125,0.226806640625,-1.3427733182907104,-2.929687261581421,-4.150390625,1,henrik
1772897665.41388,0.96826171875,0.3114013671875,0.265869140625,-2.38037109375,-3.173827886581421,1.03759765625,1,henrik
1772897665.41388,0.96044921875,0.3616943359375,0.2254638671875,-2.25830078125,-1.4648436307907104,3.906249761581421,1,henrik
1772897665.4753065,0.95458984375,0.33056640625,0.211669921875,4.2724609375,3.112792730331421,6.713866710662842,1,henrik
1772897665.536594,0.97802734375,0.3497314453125,0.2608642578125,-4.638671875,3.845214605331421,11.047362327575684,1,henrik
1772897665.5374377,1.0810546875,0.39306640625,0.2464599609375,-8.056640625,5.859374523162842,17.9443359375,1,henrik
1772897665.595503,1.2459716796875,0.589599609375,0.316162109375,-24.230955123901367,10.192870140075684,32.77587890625,1,henrik
1772897665.6529226,1.39794921875,0.7294921875,0.277587890625,-10.681151390075684,17.9443359375,53.710933685302734,1,henrik
1772897665.6529226,1.3778076171875,0.6695556640625,0.2718505859375,-28.076169967651367,25.939939498901367,61.401363372802734,1,henrik
1772897665.7171159,1.353759765625,0.842529296875,0.1700439453125,-14.343260765075684,34.5458984375,52.490230560302734,1,henrik
1772897665.7757974,1.2652587890625,0.5224609375,0.095703125,-5.615233898162842,33.69140625,38.9404296875,1,henrik
1772897665.7757974,1.311279296875,0.638671875,0.09326171875,-16.4794921875,35.888671875,26.306150436401367,1,henrik
1772897665.8364904,1.3280029296875,0.572021484375,0.059326171875,-0.6103515625,33.203125,5.310058116912842,1,henrik
1772897665.8364904,1.262451171875,0.4547119140625,-0.0408935546875,-5.249022960662842,18.37158203125,-25.207517623901367,1,henrik
1772897665.8943741,0.99072265625,0.2987060546875,0.169189453125,-58.898921966552734,0.6103515625,-74.462890625,1,henrik
1772897665.9551175,0.691162109375,0.293701171875,0.0799560546875,-63.171382904052734,-13.061522483825684,-130.92041015625,1,henrik
1772897665.9551175,0.42138671875,0.5601806640625,0.0205078125,-47.302242279052734,-12.756346702575684,-157.16552734375,1,henrik
1772897666.014312,-0.169677734375,-0.1768798828125,0.034423828125,-38.57421875,-40.0390625,-160.5224609375,1,henrik
1772897666.072961,-0.0548095703125,-0.4786376953125,0.606201171875,-181.57957458496094,-42.968746185302734,-136.1083984375,1,henrik
1772897666.072961,0.49951171875,0.18701171875,-0.1156005859375,-262.20703125,-27.893064498901367,-49.133296966552734,1,henrik
1772897666.1365116,0.557861328125,0.533447265625,0.0048828125,16.357421875,5.737304210662842,-40.405269622802734,1,henrik
1772897666.1947393,0.937744140625,-0.0128173828125,0.1304931640625,100.03661346435547,26.672361373901367,7.812499523162842,1,henrik
1772897666.1947393,1.0572509765625,0.047607421875,-0.12646484375,-24.963376998901367,-2.746581792831421,28.076169967651367,1,henrik
1772897666.2557216,0.94384765625,0.32666015625,0.100830078125,-32.5927734375,-14.892577171325684,26.306150436401367,1,henrik
1772897666.313299,1.01416015625,0.161865234375,-0.0113525390625,34.0576171875,2.807616949081421,4.8828125,1,henrik
1772897666.3725727,0.9775390625,0.142333984375,0.0501708984375,4.0283203125,-3.051757574081421,1.8920897245407104,1,henrik
1772897666.3725727,0.9857177734375,0.1436767578125,0.05615234375,13.366698265075684,-0.9155272841453552,-0.1831054538488388,1,henrik
1772897666.4360013,0.9732666015625,0.11181640625,0.07470703125,1.8310545682907104,-4.57763671875,2.563476324081421,1,henrik
1772897666.4360013,0.9677734375,0.149169921875,0.0589599609375,-2.13623046875,-5.737304210662842,6.042479991912842,1,henrik
1772897666.5575964,0.940185546875,0.1339111328125,0.111083984375,0.7324218153953552,-4.8828125,6.042479991912842,1,henrik
1772897666.61023,0.9656982421875,0.1373291015625,0.0911865234375,14.709471702575684,-3.845214605331421,13.305663108825684,1,henrik
1772897666.61023,0.891845703125,0.095458984375,0.120849609375,9.3994140625,-1.8920897245407104,26.489255905151367,1,henrik
1772897666.6182659,0.86962890625,0.20166015625,0.0870361328125,17.822265625,-0.7934569716453552,43.395992279052734,1,henrik
1772897666.6751444,0.771728515625,0.0819091796875,0.0987548828125,43.273921966552734,3.723144292831421,53.894039154052734,1,henrik
1772897666.6751444,0.8240966796875,0.2703857421875,0.196533203125,43.518062591552734,6.591796398162842,63.110347747802734,1,henrik
1772897666.7351031,0.722412109375,0.2445068359375,0.085693359375,37.4755859375,8.48388671875,72.75390625,1,henrik
1772897666.79513,0.804443359375,0.303466796875,0.1085205078125,42.541500091552734,15.930174827575684,72.1435546875,1,henrik
1772897666.79513,0.8616943359375,0.3564453125,0.1256103515625,56.579586029052734,10.864256858825684,63.110347747802734,1,henrik
1772897666.8565657,0.8406982421875,0.31396484375,0.0723876953125,49.743648529052734,16.11328125,59.020992279052734,1,henrik
1772897666.9171538,0.9228515625,0.4068603515625,0.132080078125,29.418943405151367,8.544921875,51.086421966552734,1,henrik
1772897666.975491,0.8504638671875,0.4151611328125,0.0933837890625,42.724605560302734,12.268065452575684,40.893550872802734,1,henrik
1772897666.975491,0.9801025390625,0.4097900390625,0.120361328125,36.0107421875,4.21142578125,34.48486328125,1,henrik
1772897667.0377293,0.78759765625,0.377197265625,0.119873046875,40.954586029052734,7.080077648162842,30.822751998901367,1,henrik
1772897667.0958147,1.050048828125,0.46484375,0.15185546875,6.347655773162842,-6.103515148162842,29.785154342651367,1,henrik
1772897667.0958147,0.744384765625,0.3670654296875,0.212158203125,23.193357467651367,3.906249761581421,23.681638717651367,1,henrik
1772897667.1484444,1.041748046875,0.5633544921875,0.1033935546875,18.49365234375,-1.7700194120407104,22.888181686401367,1,henrik
1772897667.1484444,0.7799072265625,0.4521484375,0.179443359375,24.719236373901367,5.920409679412842,15.197752952575684,1,henrik
1772897667.2176707,0.9564208984375,0.5211181640625,0.159423828125,19.71435546875,-8.056640625,10.498045921325684,1,henrik
1772897667.2756078,0.837646484375,0.492431640625,0.2078857421875,14.953612327575684,-7.019042491912842,11.230467796325684,1,henrik
1772897667.5158434,0.931884765625,0.46533203125,0.2069091796875,3.234863042831421,-8.85009765625,8.36181640625,1,henrik
1772897667.5158434,0.895751953125,0.603271484375,0.20947265625,-3.234863042831421,-13.488768577575684,6.835937023162842,1,henrik
1772897667.5158434,0.8695068359375,0.5137939453125,0.23095703125,6.408690929412842,-9.46044921875,0.1831054538488388,1,henrik
1772897667.5191967,0.895751953125,0.6373291015625,0.2330322265625,1.8310545682907104,-11.535643577575684,-7.141112804412842,1,henrik
1772897667.5749133,0.91455078125,0.548095703125,0.1630859375,8.1787109375,-10.253905296325684,-15.014647483825684,1,henrik
1772897667.5749133,0.8756103515625,0.5494384765625,0.2117919921875,13.244627952575684,-4.638671875,-16.9677734375,1,henrik
1772897667.7523038,0.9130859375,0.4752197265625,0.254638671875,-6.652831554412842,-8.72802734375,-9.33837890625,1,henrik
1772897667.7523038,0.887939453125,0.4925537109375,0.252685546875,2.929687261581421,-6.164550304412842,-14.892577171325684,1,henrik
1772897667.7523038,0.88525390625,0.480712890625,0.2760009765625,-10.986327171325684,-7.385253429412842,-10.742186546325684,1,henrik
1772897667.7523038,0.8931884765625,0.4332275390625,0.2745361328125,-6.835937023162842,0.1831054538488388,-12.939452171325684,1,henrik
1772897667.936797,0.9010009765625,0.5267333984375,0.227783203125,10.925292015075684,0.4882812201976776,-10.864256858825684,1,henrik
1772897667.936797,0.938720703125,0.44140625,0.2630615234375,-1.8310545682907104,-2.197265625,-8.1787109375,1,henrik
1772897667.937644,0.882568359375,0.498046875,0.237548828125,10.070799827575684,1.8920897245407104,-12.329100608825684,1,henrik
1772897667.9390452,0.8829345703125,0.4381103515625,0.2330322265625,-5.126952648162842,-1.5258787870407104,-11.840819358825684,1,henrik
1772897667.9958222,0.8753662109375,0.47900390625,0.2266845703125,-2.929687261581421,0.6103515625,-18.73779296875,1,henrik
1772897668.0532558,0.91552734375,0.3896484375,0.2491455078125,3.723144292831421,-2.746581792831421,-18.61572265625,1,henrik
1772897668.1112766,0.9400634765625,0.443115234375,0.247802734375,-6.042479991912842,-4.7607421875,-13.427733421325684,1,henrik
1772897668.1112766,0.89794921875,0.37744140625,0.2464599609375,-2.929687261581421,-3.601073980331421,-12.451170921325684,1,henrik
1772897668.2358594,0.89599609375,0.4063720703125,0.2587890625,3.723144292831421,-3.479003667831421,-12.207030296325684,1,henrik
1772897668.2358594,0.90234375,0.4046630859375,0.254150390625,-2.685546636581421,-2.807616949081421,-11.474608421325684,1,henrik
1772897668.2358594,0.87939453125,0.360107421875,0.258544921875,3.234863042831421,0.2441406100988388,-12.573241233825684,1,henrik
1772897668.2358594,0.902099609375,0.364013671875,0.239990234375,3.662109136581421,0.4272460639476776,-13.366698265075684,1,henrik
1772897668.3555012,0.9239501953125,0.315185546875,0.2769775390625,1.7089842557907104,-0.1831054538488388,-10.070799827575684,1,henrik
1772897668.3555012,0.92822265625,0.3582763671875,0.2584228515625,-2.197265625,-0.1831054538488388,-7.385253429412842,1,henrik
1772897668.3591924,0.918212890625,0.307861328125,0.27197265625,4.69970703125,-0.7324218153953552,-4.2724609375,1,henrik
1772897668.4762857,0.9287109375,0.38720703125,0.2735595703125,-4.45556640625,-1.2817381620407104,-4.21142578125,1,henrik
1772897668.4762857,0.9439697265625,0.3779296875,0.25830078125,-7.629394054412842,-0.3662109076976776,-4.82177734375,1,henrik
1772897668.5923338,0.9267578125,0.391357421875,0.255126953125,-4.2724609375,-0.1220703050494194,-5.737304210662842,1,henrik
1772897668.5923338,0.9593505859375,0.3848876953125,0.2066650390625,-0.54931640625,4.45556640625,-2.25830078125,1,henrik
1772897668.5923338,0.9635009765625,0.3831787109375,0.270751953125,-2.624511480331421,5.737304210662842,2.3193359375,1,henrik
1772897668.715438,1.037109375,0.3896484375,0.275390625,-0.0610351525247097,8.544921875,9.1552734375,1,henrik
1772897668.8376412,1.1080322265625,0.479248046875,0.256103515625,-10.375975608825684,9.521484375,21.606443405151367,1,henrik
1772897668.8376412,1.22119140625,0.5794677734375,0.3175048828125,-15.075682640075684,13.916014671325684,38.57421875,1,henrik
1772897668.8376412,1.2650146484375,0.5540771484375,0.2730712890625,-28.503416061401367,26.062009811401367,58.532711029052734,1,henrik
1772897668.8392978,1.24462890625,0.7598876953125,0.15087890625,-21.362302780151367,35.82763671875,59.448238372802734,1,henrik
1772897669.1376383,1.1815185546875,0.6925048828125,0.0770263671875,-43.884273529052734,37.841796875,35.0341796875,1,henrik
1772897669.1376383,1.261474609375,0.5506591796875,0.0545654296875,-20.01953125,33.75244140625,16.54052734375,1,henrik
1772897669.195536,1.138427734375,0.496337890625,0.0687255859375,-21.850584030151367,19.53125,-4.5166015625,1,henrik
1772897669.195536,1.1302490234375,0.2550048828125,0.05517578125,-40.344234466552734,5.798339366912842,-27.832029342651367,1,henrik
1772897669.195536,0.363037109375,0.41357421875,-0.100341796875,-22.888181686401367,-14.282225608825684,-151.3671875,1,henrik
1772897669.195536,-0.0968017578125,0.0635986328125,0.0506591796875,-88.80614471435547,-38.4521484375,-128.72314453125,1,henrik
1772897669.2534564,0.025634765625,-0.32861328125,0.44970703125,-230.34666442871094,-51.330562591552734,-112.48778533935547,1,henrik
1772897669.2575235,0.6534423828125,0.952392578125,-0.4718017578125,-32.28759765625,-13.793944358825684,-87.09716033935547,1,henrik
1772897669.3157206,0.8538818359375,-0.05322265625,-0.0228271484375,130.615234375,26.184080123901367,-33.75244140625,1,henrik
1772897669.3756666,0.9053955078125,0.1536865234375,-0.064697265625,-21.301267623901367,-1.8920897245407104,13.732909202575684,1,henrik
1772897669.3756666,1.0260009765625,0.3134765625,-0.1875,-12.817381858825684,-6.408690929412842,26.428220748901367,1,henrik
1772897669.4366405,0.9757080078125,0.156005859375,-0.0201416015625,24.597166061401367,4.0283203125,16.54052734375,1,henrik
1772897669.4969673,0.9969482421875,0.2978515625,-0.0245361328125,-6.530761241912842,-4.7607421875,8.72802734375,1,henrik
1772897669.4969673,0.955322265625,0.1314697265625,-0.054443359375,9.765625,-2.868652105331421,6.469726085662842,1,henrik
1772897669.6170518,0.977294921875,0.2447509765625,-0.0494384765625,11.474608421325684,0.9765624403953552,1.4038084745407104,1,henrik
1772897669.6170518,0.9576416015625,0.2255859375,-0.0572509765625,5.676269054412842,-2.44140625,7.324218273162842,1,henrik
1772897669.6170518,0.9317626953125,0.2293701171875,-0.0299072265625,17.76123046875,-5.249022960662842,8.97216796875,1,henrik
1772897669.6767747,0.9422607421875,0.16845703125,0.0145263671875,4.08935546875,-7.812499523162842,14.221190452575684,1,henrik
1772897669.7317367,0.9384765625,0.251220703125,-0.0318603515625,12.084959983825684,-5.920409679412842,19.6533203125,1,henrik
1772897669.7317367,0.89794921875,0.2060546875,0.07080078125,22.155759811401367,-5.310058116912842,25.817869186401367,1,henrik
1772897669.7949889,0.911376953125,0.2569580078125,0.030517578125,25.634763717651367,-3.967284917831421,42.785640716552734,1,henrik
1772897669.8551662,0.7894287109375,0.193359375,0.06298828125,29.907224655151367,-2.01416015625,57.373043060302734,1,henrik
1772897669.8551662,0.8221435546875,0.275390625,0.0545654296875,37.78076171875,8.1787109375,65.61279296875,1,henrik
1772897669.9144046,0.7470703125,0.33544921875,0.08740234375,22.949216842651367,3.662109136581421,68.78662109375,1,henrik
1772897670.0955143,0.7342529296875,0.3812255859375,-0.020751953125,49.316402435302734,13.366698265075684,69.7021484375,1,henrik
1772897670.1518438,0.7696533203125,0.4368896484375,0.0919189453125,51.513668060302734,-1.7089842557907104,66.95556640625,1,henrik
1772897670.1518438,0.7288818359375,0.465576171875,0.118896484375,48.339839935302734,10.620116233825684,67.81005859375,1,henrik
1772897670.1518438,0.8355712890625,0.405517578125,0.0106201171875,53.955074310302734,-6.713866710662842,51.757808685302734,1,henrik
1772897670.211481,0.812744140625,0.5177001953125,0.10498046875,37.29248046875,-0.6713866591453552,30.456541061401367,1,henrik
1772897670.211481,0.8201904296875,0.5478515625,0.1453857421875,13.122557640075684,4.21142578125,27.526853561401367,1,henrik
1772897670.331453,0.87060546875,0.5880126953125,0.145751953125,34.66796875,6.347655773162842,19.1650390625,1,henrik
1772897670.3955379,0.849853515625,0.4744873046875,0.18017578125,16.66259765625,1.3427733182907104,19.83642578125,1,henrik
1772897670.3955379,0.934814453125,0.6463623046875,0.1546630859375,26.489255905151367,6.713866710662842,8.7890625,1,henrik
1772897670.3955379,0.8798828125,0.521240234375,0.1439208984375,9.27734375,3.173827886581421,8.48388671875,1,henrik
1772897670.3955379,0.8792724609375,0.630126953125,0.1929931640625,3.295898199081421,-4.69970703125,3.112792730331421,1,henrik
1772897670.4571338,0.9517822265625,0.524658203125,0.1485595703125,3.417968511581421,-2.0751953125,9.82666015625,1,henrik
1772897670.458646,0.783935546875,0.588134765625,0.1651611328125,-1.6479490995407104,-9.46044921875,0.54931640625,1,henrik
1772897670.5169225,0.89453125,0.650390625,0.1492919921875,3.173827886581421,-2.0751953125,-0.6713866591453552,1,henrik
1772897670.5755756,0.7952880859375,0.5809326171875,0.1805419921875,7.995604991912842,-3.173827886581421,-8.36181640625,1,henrik
1772897670.5755756,0.801513671875,0.5770263671875,0.1466064453125,3.295898199081421,-1.220703125,-7.446288585662842,1,henrik
1772897670.637509,0.87646484375,0.607666015625,0.17236328125,-0.7324218153953552,-0.7934569716453552,-10.253905296325684,1,henrik
1772897670.697352,0.813720703125,0.5565185546875,0.1490478515625,10.131834983825684,-4.2724609375,-14.099120140075684,1,henrik
1772897670.8144848,0.9224853515625,0.58544921875,0.14892578125,6.042479991912842,-6.774901866912842,-9.1552734375,1,henrik
1772897670.8734858,0.8834228515625,0.5814208984375,0.19970703125,7.507323741912842,-9.94873046875,-13.305663108825684,1,henrik
1772897670.878553,0.8736572265625,0.6168212890625,0.153564453125,10.559081077575684,-12.023924827575684,-10.681151390075684,1,henrik
1772897670.878553,0.887451171875,0.576416015625,0.22705078125,-0.2441406100988388,-9.8876953125,-12.817381858825684,1,henrik
1772897670.9923186,0.8310546875,0.630126953125,0.22216796875,2.807616949081421,-5.615233898162842,-16.78466796875,1,henrik
1772897670.9923186,0.8704833984375,0.5638427734375,0.1898193359375,11.901854515075684,6.164550304412842,-15.014647483825684,1,henrik
1772897670.9979503,0.862548828125,0.489990234375,0.1195068359375,21.362302780151367,3.479003667831421,-15.319823265075684,1,henrik
1772897671.055102,0.8358154296875,0.4794921875,0.2359619140625,7.019042491912842,-1.2817381620407104,-15.136717796325684,1,henrik
1772897671.1164742,0.83056640625,0.423583984375,0.1962890625,0.4882812201976776,-0.6713866591453552,-13.610838890075684,1,henrik
1772897671.1169817,0.8497314453125,0.5128173828125,0.268310546875,-7.385253429412842,-1.4648436307907104,-15.319823265075684,1,henrik
1772897671.1704648,0.8629150390625,0.4093017578125,0.2279052734375,-1.5258787870407104,-0.0610351525247097,-13.183592796325684,1,henrik
1772897671.1704648,0.8724365234375,0.5048828125,0.2445068359375,-9.3994140625,1.3427733182907104,-14.099120140075684,1,henrik
1772897671.354997,0.89208984375,0.4217529296875,0.221435546875,3.173827886581421,0.6713866591453552,-14.343260765075684,1,henrik
1772897671.4145858,0.91259765625,0.4862060546875,0.21728515625,-5.798339366912842,-2.746581792831421,-14.709471702575684,1,henrik
1772897671.4145858,0.900634765625,0.4556884765625,0.1683349609375,-1.03759765625,-6.652831554412842,-13.610838890075684,1,henrik
1772897671.5266688,0.853515625,0.366455078125,0.22900390625,-19.95849609375,-12.084959983825684,-12.268065452575684,1,henrik
1772897671.5975726,0.86279296875,0.5064697265625,0.1943359375,5.798339366912842,-8.23974609375,-22.705076217651367,1,henrik
1772897671.656119,0.905029296875,0.4561767578125,0.2462158203125,5.798339366912842,-7.202147960662842,-29.357908248901367,1,henrik
1772897671.656119,0.9473876953125,0.467041015625,0.1925048828125,-11.230467796325684,-9.70458984375,-28.137205123901367,1,henrik
1772897671.656119,0.9940185546875,0.4022216796875,0.2630615234375,-1.0986328125,2.44140625,6.164550304412842,1,henrik
1772897671.656119,0.961181640625,0.357421875,0.1904296875,2.0751953125,4.33349609375,16.29638671875,1,henrik
1772897671.837032,0.8857421875,0.36865234375,0.234375,4.21142578125,5.920409679412842,19.34814453125,1,henrik
1772897671.837856,0.8536376953125,0.3653564453125,0.231201171875,-4.5166015625,3.479003667831421,20.568845748901367,1,henrik
1772897671.837856,0.8126220703125,0.3642578125,0.226806640625,2.25830078125,5.371093273162842,15.380858421325684,1,henrik
1772897671.8388605,0.8397216796875,0.3741455078125,0.204345703125,3.662109136581421,3.540038824081421,9.521484375,1,henrik
1772897671.8958614,0.9862060546875,0.51123046875,0.26171875,-1.4038084745407104,7.141112804412842,9.21630859375,1,henrik
1772897672.016171,1.3079833984375,0.709716796875,0.2130126953125,-27.221677780151367,10.070799827575684,28.381345748901367,1,henrik
1772897672.07534,1.40576171875,0.8660888671875,0.2940673828125,-33.63037109375,15.380858421325684,51.147457122802734,1,henrik
1772897672.07534,1.3460693359375,0.8358154296875,0.25341796875,-34.423828125,27.343748092651367,53.955074310302734,1,henrik
1772897672.07534,1.287841796875,0.8333740234375,0.121826171875,-38.87939453125,26.855466842651367,51.208492279052734,1,henrik
1772897672.07534,1.2001953125,0.685546875,0.0887451171875,-49.133296966552734,25.085447311401367,45.104976654052734,1,henrik
1772897672.1347077,1.1593017578125,0.6580810546875,0.0445556640625,-36.2548828125,31.188962936401367,23.620603561401367,1,henrik
1772897672.196213,1.16796875,0.530517578125,0.072998046875,-25.085447311401367,24.780271530151367,-9.521484375,1,henrik
1772897672.196213,1.1466064453125,0.5181884765625,-0.0272216796875,-10.925292015075684,15.747069358825684,-28.137205123901367,1,henrik
1772897672.2568834,0.928466796875,0.269775390625,0.0411376953125,-29.235837936401367,-1.8920897245407104,-71.044921875,1,henrik
1772897672.2568834,0.9283447265625,0.3873291015625,0.091064453125,-47.180171966552734,-13.366698265075684,-94.17723846435547,1,henrik
1772897672.3761408,0.626220703125,0.419189453125,-0.0120849609375,-23.010251998901367,-32.71484375,-130.859375,1,henrik
1772897672.3761408,0.2508544921875,0.2855224609375,-0.1099853515625,-50.720211029052734,-31.494138717651367,-145.01953125,1,henrik
1772897672.3785374,0.2137451171875,0.09521484375,0.2662353515625,-74.0966796875,-64.0869140625,-143.4326171875,1,henrik
1772897672.4383116,0.049560546875,-0.2783203125,0.2896728515625,-106.62841033935547,-41.809078216552734,-149.169921875,1,henrik
1772897672.4383116,0.2623291015625,0.35546875,0.0599365234375,-237.30467224121094,-40.710445404052734,-103.08837127685547,1,henrik
1772897672.4964359,0.8206787109375,0.57177734375,0.0079345703125,155.1513671875,32.1044921875,-54.687496185302734,1,henrik
1772897672.5562105,0.97607421875,-0.25439453125,0.16259765625,52.673336029052734,18.73779296875,17.02880859375,1,henrik
1772897672.5562105,0.9388427734375,0.2529296875,-0.0784912109375,-32.958984375,-0.4272460639476776,42.419429779052734,1,henrik
1772897672.6151984,0.97216796875,0.2430419921875,0.1082763671875,32.04345703125,9.46044921875,19.287109375,1,henrik
1772897672.674554,1.0438232421875,0.181640625,-0.0068359375,22.216794967651367,3.234863042831421,8.97216796875,1,henrik
1772897672.674554,0.9886474609375,0.150146484375,0.0245361328125,-13.549803733825684,-0.9155272841453552,15.258788108825684,1,henrik
1772897672.73422,0.9849853515625,0.235107421875,0.0701904296875,0.30517578125,2.929687261581421,7.324218273162842,1,henrik
1772897672.7945051,0.962646484375,0.173095703125,-0.0074462890625,4.94384765625,4.33349609375,-0.0610351525247097,1,henrik
1772897672.7945051,0.9798583984375,0.200927734375,0.0198974609375,8.72802734375,0.6103515625,2.197265625,1,henrik
1772897672.8560343,0.947265625,0.15283203125,0.03564453125,1.03759765625,-0.9765624403953552,1.5258787870407104,1,henrik
1772897672.91379,0.982666015625,0.1690673828125,0.0213623046875,-4.21142578125,-3.967284917831421,5.065917491912842,1,henrik
1772897672.91379,0.9267578125,0.2032470703125,0.0692138671875,-3.479003667831421,-2.13623046875,10.864256858825684,1,henrik
1772897672.9771647,0.8914794921875,0.105712890625,0.060546875,8.7890625,4.94384765625,29.663084030151367,1,henrik
1772897673.037189,0.8377685546875,0.1990966796875,0.0384521484375,5.249022960662842,-2.563476324081421,51.635738372802734,1,henrik
1772897673.037189,0.73388671875,0.3057861328125,-0.072509765625,17.02880859375,-2.3193359375,82.27538299560547,1,henrik
1772897673.1489236,0.7152099609375,0.1451416015625,0.073486328125,-21.972654342651367,-4.2724609375,92.28514862060547,1,henrik
1772897673.1489236,0.7550048828125,0.552490234375,0.0684814453125,-10.131834983825684,2.44140625,79.40673828125,1,henrik
1772897673.2706263,0.7962646484375,0.41650390625,0.0374755859375,49.377437591552734,6.286620616912842,81.54296112060547,1,henrik
1772897673.2706263,0.78369140625,0.473388671875,0.0184326171875,37.65869140625,4.21142578125,70.98388671875,1,henrik
1772897673.2706263,0.7926025390625,0.4288330078125,0.0972900390625,34.97314453125,-5.798339366912842,66.162109375,1,henrik
1772897673.2706263,0.861328125,0.5777587890625,0.0792236328125,-4.5166015625,-10.803221702575684,58.105464935302734,1,henrik
1772897673.395593,0.8011474609375,0.5738525390625,0.1187744140625,57.617183685302734,-0.8544921278953552,35.94970703125,1,henrik
1772897673.395593,0.8818359375,0.6126708984375,0.1990966796875,60.363765716552734,-1.220703125,22.583005905151367,1,henrik
1772897673.395593,0.8636474609375,0.4688720703125,0.16455078125,93.13964080810547,11.169432640075684,14.404295921325684,1,henrik
1772897673.4567292,0.9462890625,0.5201416015625,0.1341552734375,33.14208984375,9.521484375,15.319823265075684,1,henrik
1772897673.51412,0.8284912109375,0.460693359375,0.252197265625,13.610838890075684,10.498045921325684,12.878417015075684,1,henrik
1772897673.51412,0.910400390625,0.5809326171875,0.1502685546875,17.822265625,15.319823265075684,5.676269054412842,1,henrik
1772897673.5726538,0.77734375,0.4542236328125,0.181640625,10.925292015075684,6.896972179412842,9.033203125,1,henrik
1772897673.6358435,0.9049072265625,0.5556640625,0.2166748046875,13.793944358825684,16.357421875,4.82177734375,1,henrik
1772897673.6358435,0.826171875,0.5037841796875,0.1109619140625,34.0576171875,8.72802734375,-0.3662109076976776,1,henrik
1772897673.6966853,0.984130859375,0.5894775390625,0.137451171875,1.3427733182907104,-2.38037109375,3.723144292831421,1,henrik
1772897673.81688,0.881103515625,0.593994140625,0.112548828125,18.49365234375,-7.446288585662842,0.1831054538488388,1,henrik
1772897673.81688,0.89306640625,0.5955810546875,0.11279296875,16.54052734375,-15.380858421325684,-1.4648436307907104,1,henrik
1772897673.81688,0.85595703125,0.5064697265625,0.28857421875,19.8974609375,-12.756346702575684,-5.493163585662842,1,henrik
1772897673.8195255,0.810546875,0.576171875,0.19482421875,14.038084983825684,-12.084959983825684,-10.437010765075684,1,henrik
1772897673.8756907,0.8204345703125,0.49853515625,0.2637939453125,13.244627952575684,-4.69970703125,-7.019042491912842,1,henrik
1772897673.9378912,0.8421630859375,0.5123291015625,0.275634765625,5.554198741912842,-5.493163585662842,-7.141112804412842,1,henrik
1772897674.048968,0.8114013671875,0.5113525390625,0.29443359375,-6.469726085662842,2.929687261581421,-9.3994140625,1,henrik
1772897674.048968,0.90576171875,0.7227783203125,0.19677734375,9.58251953125,0.30517578125,-15.319823265075684,1,henrik
1772897674.048968,0.8402099609375,0.4697265625,0.2471923828125,21.789548873901367,0.9765624403953552,-14.770506858825684,1,henrik
1772897674.1163962,0.886962890625,0.5955810546875,0.2066650390625,4.638671875,-10.070799827575684,-21.606443405151367,1,henrik
1772897674.1163962,0.887451171875,0.38330078125,0.2550048828125,3.906249761581421,-14.892577171325684,-18.06640625,1,henrik
1772897674.2372894,0.8663330078125,0.525390625,0.3131103515625,-26.794431686401367,-17.822265625,-16.9677734375,1,henrik
1772897674.297608,0.902587890625,0.5272216796875,0.2110595703125,-1.4648436307907104,-11.779784202575684,-16.54052734375,1,henrik
1772897674.297608,0.8594970703125,0.4952392578125,0.3643798828125,-7.080077648162842,-12.268065452575684,-17.51708984375,1,henrik
1772897674.3556738,0.8631591796875,0.45654296875,0.263916015625,21.606443405151367,-2.01416015625,-21.179197311401367,1,henrik
1772897674.3556738,0.854248046875,0.45068359375,0.2969970703125,10.192870140075684,-5.981444835662842,-22.033689498901367,1,henrik
1772897674.412528,0.8857421875,0.4022216796875,0.31982421875,2.990722417831421,-2.563476324081421,-19.95849609375,1,henrik
1772897674.4702165,0.9072265625,0.476318359375,0.2979736328125,-5.065917491912842,-3.112792730331421,-24.230955123901367,1,henrik
1772897674.5956166,0.9266357421875,0.4576416015625,0.301513671875,0.0610351525247097,-5.615233898162842,-22.521970748901367,1,henrik
1772897674.5956166,0.939208984375,0.4532470703125,0.3369140625,-3.845214605331421,-11.840819358825684,-25.573728561401367,1,henrik
1772897674.5956166,0.9268798828125,0.3992919921875,0.3585205078125,1.7700194120407104,-14.526366233825684,-24.658201217651367,1,henrik
1772897674.5988183,0.9403076171875,0.3890380859375,0.3416748046875,-7.507323741912842,-14.953612327575684,-21.972654342651367,1,henrik
1772897674.6563811,0.9219970703125,0.4114990234375,0.28466796875,-7.507323741912842,-12.512206077575684,-9.94873046875,1,henrik
1772897674.6575572,0.889404296875,0.3555908203125,0.3143310546875,-4.150390625,-11.169432640075684,-6.408690929412842,1,henrik
1772897674.7170458,0.9061279296875,0.3681640625,0.3272705078125,-5.310058116912842,-5.0048828125,-3.234863042831421,1,henrik
1772897674.7702367,0.8963623046875,0.378662109375,0.2996826171875,1.2817381620407104,-0.4272460639476776,-0.7324218153953552,1,henrik
1772897674.7702367,0.903564453125,0.3306884765625,0.3251953125,8.1787109375,3.845214605331421,2.44140625,1,henrik
1772897674.8957043,0.9420166015625,0.3292236328125,0.311767578125,13.244627952575684,4.69970703125,11.108397483825684,1,henrik
1772897674.8957043,0.99658203125,0.405029296875,0.3876953125,-5.249022960662842,6.347655773162842,21.301267623901367,1,henrik
1772897674.8957043,1.08056640625,0.466796875,0.4110107421875,-17.333984375,13.549803733825684,36.68212890625,1,henrik
1772897674.9563777,1.193115234375,0.5948486328125,0.4459228515625,-27.587888717651367,23.681638717651367,56.579586029052734,1,henrik
1772897675.0119689,1.223388671875,0.7271728515625,0.39501953125,-26.977537155151367,31.982419967651367,69.39697265625,1,henrik
1772897675.0119689,1.214111328125,0.789794921875,0.3836669921875,-13.977049827575684,41.625972747802734,75.439453125,1,henrik
1772897675.0734994,1.2772216796875,0.801513671875,0.27587890625,-36.4990234375,48.828121185302734,75.86669921875,1,henrik
1772897675.1349847,1.18505859375,0.7288818359375,0.2008056640625,-58.715816497802734,46.936031341552734,68.2373046875,1,henrik
1772897675.1349847,1.1890869140625,0.7667236328125,0.066650390625,-65.00244140625,51.757808685302734,49.926753997802734,1,henrik
1772897675.192698,1.0987548828125,0.6571044921875,0.0670166015625,-37.17041015625,49.438472747802734,16.41845703125,1,henrik
1772897675.2564285,1.0352783203125,0.5030517578125,-0.01025390625,-23.010251998901367,37.841796875,-12.390135765075684,1,henrik
1772897675.3183763,0.9268798828125,0.4249267578125,0.0501708984375,-27.526853561401367,20.446775436401367,-48.461910247802734,1,henrik
1772897675.374526,0.714599609375,0.4276123046875,-0.02294921875,-22.766111373901367,2.929687261581421,-80.81053924560547,1,henrik
1772897675.374526,0.716552734375,0.3516845703125,0.018310546875,-15.258788108825684,2.38037109375,-96.06932830810547,1,henrik
1772897675.4352512,0.411376953125,0.447021484375,-0.123291015625,-2.685546636581421,-27.221677780151367,-125.18309783935547,1,henrik
1772897675.4352512,0.2603759765625,0.20654296875,0.168701171875,-45.471187591552734,-35.0341796875,-122.07030487060547,1,henrik
1772897675.5566695,0.0145263671875,-0.14453125,0.2359619140625,-64.39208984375,-16.4794921875,-121.45995330810547,1,henrik
1772897675.5577152,0.24462890625,0.239013671875,0.2659912109375,-170.77635192871094,-19.4091796875,-105.46874237060547,1,henrik
1772897675.6120963,0.7703857421875,0.6650390625,-0.28271484375,76.66015625,28.869626998901367,-72.1435546875,1,henrik
1772897675.6120963,0.9117431640625,0.1141357421875,0.0723876953125,57.312007904052734,16.54052734375,-30.700681686401367,1,henrik
1772897675.6725812,0.95703125,0.2232666015625,-0.0775146484375,14.465331077575684,6.591796398162842,-2.13623046875,1,henrik
1772897675.6725812,0.9222412109375,0.2528076171875,-0.032958984375,-17.578125,-9.09423828125,16.41845703125,1,henrik
1772897675.7346554,1.00634765625,0.2698974609375,-0.01416015625,-1.8920897245407104,-5.798339366912842,7.019042491912842,1,henrik
1772897675.7346554,0.9847412109375,0.2420654296875,-0.024658203125,6.286620616912842,-3.723144292831421,3.051757574081421,1,henrik
1772897675.8537424,0.97802734375,0.175048828125,0.0096435546875,-9.765625,-5.554198741912842,1.3427733182907104,1,henrik
1772897675.8537424,0.9786376953125,0.269775390625,-0.004150390625,3.112792730331421,-2.685546636581421,-0.4272460639476776,1,henrik
1772897675.8537424,0.9769287109375,0.15283203125,0.01416015625,-1.220703125,-2.0751953125,0.8544921278953552,1,henrik
1772897675.9150946,0.9786376953125,0.2388916015625,-0.006591796875,-0.4272460639476776,-3.723144292831421,2.197265625,1,henrik
1772897675.9150946,0.96484375,0.1998291015625,0.04296875,-5.432128429412842,-4.39453125,0.8544921278953552,1,henrik
1772897675.9771662,0.9542236328125,0.1834716796875,0.0352783203125,-0.0610351525247097,-3.479003667831421,1.2817381620407104,1,henrik
1772897676.0344903,0.9443359375,0.203857421875,0.0345458984375,-2.3193359375,-5.371093273162842,10.375975608825684,1,henrik
1772897676.0344903,0.9212646484375,0.2412109375,0.0208740234375,4.39453125,-4.0283203125,14.953612327575684,1,henrik
1772897676.0960283,0.8953857421875,0.1754150390625,0.093994140625,18.37158203125,-3.234863042831421,22.888181686401367,1,henrik
1772897676.156134,0.8514404296875,0.30712890625,-0.001953125,38.4521484375,-3.723144292831421,39.00146484375,1,henrik
1772897676.157217,0.7686767578125,0.133056640625,-0.0052490234375,34.97314453125,-3.601073980331421,68.17626953125,1,henrik
1772897676.2162664,0.7088623046875,0.314208984375,0.0899658203125,-19.4091796875,-9.58251953125,80.50536346435547,1,henrik
1772897676.2749608,0.76708984375,0.451416015625,0.0098876953125,-6.164550304412842,4.57763671875,83.55712127685547,1,henrik
1772897676.2749608,0.746337890625,0.48583984375,0.0260009765625,28.564451217651367,7.385253429412842,76.11083984375,1,henrik
1772897676.331617,0.818603515625,0.4979248046875,0.01806640625,55.419918060302734,16.845703125,65.24658203125,1,henrik
1772897676.392572,0.8592529296875,0.43115234375,0.069091796875,61.157222747802734,7.812499523162842,51.940914154052734,1,henrik
1772897676.3971226,0.8431396484375,0.467529296875,0.029296875,25.451658248901367,11.047362327575684,45.227046966552734,1,henrik
1772897676.4546523,0.8636474609375,0.50634765625,0.0977783203125,21.972654342651367,-0.0610351525247097,38.26904296875,1,henrik
1772897676.5108154,0.78173828125,0.5025634765625,0.1180419921875,10.986327171325684,2.563476324081421,34.1796875,1,henrik
1772897676.5108154,0.818603515625,0.5206298828125,0.1339111328125,9.82666015625,-0.6713866591453552,33.50830078125,1,henrik
1772897676.5758023,0.8685302734375,0.5037841796875,0.0938720703125,1.15966796875,-2.3193359375,34.423828125,1,henrik
1772897676.6331785,0.7744140625,0.5853271484375,0.1097412109375,4.8828125,-3.051757574081421,28.564451217651367,1,henrik
1772897676.7565494,0.8753662109375,0.641845703125,0.0615234375,4.2724609375,-1.03759765625,22.766111373901367,1,henrik
1772897676.7565494,0.7215576171875,0.6400146484375,0.0948486328125,19.4091796875,0.4272460639476776,15.014647483825684,1,henrik
1772897676.7565494,0.8848876953125,0.639404296875,0.059326171875,7.568358898162842,-7.873534679412842,8.23974609375,1,henrik
1772897676.7565494,0.7318115234375,0.690185546875,0.0927734375,12.268065452575684,-5.187987804412842,1.4038084745407104,1,henrik
1772897676.8143947,0.8685302734375,0.6885986328125,0.04248046875,15.747069358825684,-12.939452171325684,-3.723144292831421,1,henrik
1772897676.8764043,0.6968994140625,0.5732421875,0.1856689453125,-3.356933355331421,-15.380858421325684,-9.82666015625,1,henrik
1772897676.931625,0.8402099609375,0.6763916015625,0.106689453125,3.295898199081421,-12.145995140075684,-9.70458984375,1,henrik
1772897676.9372857,0.7449951171875,0.5723876953125,0.218994140625,3.234863042831421,-10.070799827575684,-19.10400390625,1,henrik
1772897676.993491,0.8428955078125,0.6563720703125,0.1561279296875,6.896972179412842,-12.268065452575684,-23.315427780151367,1,henrik
1772897676.993491,0.863037109375,0.6258544921875,0.1788330078125,12.390135765075684,-6.530761241912842,-23.986814498901367,1,henrik
1772897677.0565677,0.903564453125,0.6199951171875,0.1505126953125,9.09423828125,-11.352538108825684,-23.071287155151367,1,henrik
1772897677.1774018,0.865478515625,0.580322265625,0.205810546875,7.873534679412842,-8.72802734375,-22.705076217651367,1,henrik
1772897677.1774018,0.9227294921875,0.6142578125,0.1700439453125,9.46044921875,-13.122557640075684,-22.033689498901367,1,henrik
1772897677.1785197,0.8692626953125,0.5313720703125,0.2139892578125,16.66259765625,-10.681151390075684,-20.141599655151367,1,henrik
1772897677.356974,0.8463134765625,0.53759765625,0.2291259765625,-5.798339366912842,-10.498045921325684,-25.024412155151367,1,henrik
1772897677.3579988,0.8125,0.547607421875,0.212646484375,14.038084983825684,-6.713866710662842,-31.799314498901367,1,henrik
1772897677.3579988,0.862060546875,0.4375,0.252685546875,-2.929687261581421,-6.591796398162842,-28.076169967651367,1,henrik
1772897677.3597627,0.8641357421875,0.45263671875,0.2783203125,-2.563476324081421,-4.82177734375,-31.860349655151367,1,henrik
1772897677.4156404,0.9468994140625,0.5223388671875,0.263427734375,-1.3427733182907104,-5.0048828125,-23.254392623901367,1,henrik
1772897677.4757965,0.9674072265625,0.5030517578125,0.2513427734375,0.1220703050494194,-4.57763671875,-23.437498092651367,1,henrik
1772897677.4757965,0.9527587890625,0.5107421875,0.2716064453125,-3.112792730331421,-5.187987804412842,-18.00537109375,1,henrik
1772897677.53482,0.941650390625,0.4769287109375,0.228759765625,-1.8920897245407104,-0.2441406100988388,-17.27294921875,1,henrik
1772897677.5896995,0.90234375,0.455078125,0.22412109375,-3.845214605331421,-0.6103515625,-17.76123046875,1,henrik
1772897677.5977836,0.9051513671875,0.4307861328125,0.2401123046875,-1.2817381620407104,-4.33349609375,-18.4326171875,1,henrik
1772897677.656591,0.90283203125,0.3726806640625,0.2518310546875,-0.54931640625,-5.798339366912842,-18.310546875,1,henrik
1772897677.7156255,0.9266357421875,0.3961181640625,0.2269287109375,-9.3994140625,-9.21630859375,-13.793944358825684,1,henrik
1772897677.7156255,0.916259765625,0.4111328125,0.2401123046875,6.103515148162842,-8.11767578125,-11.657713890075684,1,henrik
1772897677.776169,0.921875,0.35986328125,0.2330322265625,-2.685546636581421,-9.21630859375,-5.737304210662842,1,henrik
1772897677.893321,0.9315185546875,0.365966796875,0.2332763671875,4.45556640625,-2.3193359375,-2.685546636581421,1,henrik
1772897677.95152,0.94580078125,0.3994140625,0.259521484375,3.112792730331421,2.746581792831421,1.7700194120407104,1,henrik
1772897678.0161636,0.9803466796875,0.3914794921875,0.279052734375,-0.7324218153953552,8.30078125,7.934569835662842,1,henrik
1772897678.0161636,1.0260009765625,0.4163818359375,0.2962646484375,-7.751464366912842,11.901854515075684,15.808104515075684,1,henrik
1772897678.018282,1.0828857421875,0.5206298828125,0.2822265625,-11.474608421325684,15.747069358825684,29.541013717651367,1,henrik
1772897678.0753226,1.154052734375,0.52685546875,0.3404541015625,-13.977049827575684,20.629880905151367,42.846675872802734,1,henrik
1772897678.0753226,1.208251953125,0.7530517578125,0.1875,-13.244627952575684,23.681638717651367,52.124019622802734,1,henrik
1772897678.1334586,1.2979736328125,0.9114990234375,0.1243896484375,31.127927780151367,24.780271530151367,54.016109466552734,1,henrik
1772897678.1334586,1.20361328125,0.5819091796875,0.3133544921875,13.305663108825684,26.123044967651367,48.461910247802734,1,henrik
1772897678.1967375,1.1162109375,0.6436767578125,0.2137451171875,-28.137205123901367,33.8134765625,28.808591842651367,1,henrik
1772897678.1967375,1.195556640625,0.7041015625,0.1094970703125,-19.775390625,39.794921875,24.230955123901367,1,henrik
1772897678.2510374,1.1512451171875,0.486328125,0.0875244140625,-38.02490234375,30.273435592651367,20.507810592651367,1,henrik
1772897678.3774424,1.46826171875,0.7745361328125,-0.07568359375,-2.563476324081421,24.475095748901367,11.047362327575684,1,henrik
1772897678.3774424,1.0135498046875,0.3287353515625,0.0606689453125,13.244627952575684,-6.958007335662842,-14.892577171325684,1,henrik
1772897678.3774424,0.82666015625,0.1143798828125,0.2608642578125,-64.8193359375,-8.7890625,-58.593746185302734,1,henrik
1772897678.5492883,0.51416015625,0.3353271484375,0.1243896484375,-54.077144622802734,2.50244140625,-99.06005096435547,1,henrik
1772897678.5492883,0.3966064453125,0.2742919921875,0.022216796875,-8.97216796875,3.234863042831421,-106.01805877685547,1,henrik
1772897678.9164438,0.2161865234375,0.1583251953125,0.158447265625,4.638671875,8.6669921875,-123.41307830810547,1,henrik
1772897678.9164438,0.2933349609375,-0.01953125,0.1314697265625,-62.866207122802734,-13.305663108825684,-106.56737518310547,1,henrik
1772897678.9180458,0.5799560546875,0.587646484375,-0.1806640625,-97.65624237060547,-2.929687261581421,-39.73388671875,1,henrik
1772897678.9192908,0.841552734375,0.432373046875,0.03564453125,145.3857421875,41.076656341552734,-23.681638717651367,1,henrik
1772897679.0368392,0.9776611328125,0.306884765625,-0.0091552734375,0.7934569716453552,0.1831054538488388,0.6713866591453552,1,henrik
1772897679.0374186,0.9862060546875,0.2239990234375,0.0064697265625,-13.427733421325684,-1.0986328125,-7.080077648162842,1,henrik
1772897679.0383391,0.9669189453125,0.2093505859375,-0.02587890625,8.056640625,0.1831054538488388,-6.713866710662842,1,henrik
1772897679.1560133,0.97998046875,0.22802734375,-0.010009765625,-1.3427733182907104,-1.03759765625,-7.507323741912842,1,henrik
1772897679.1560133,0.96923828125,0.1778564453125,0.0125732421875,3.723144292831421,-3.112792730331421,-2.3193359375,1,henrik
1772897679.1560133,0.931640625,0.2138671875,-0.003173828125,3.906249761581421,-3.112792730331421,7.507323741912842,1,henrik
1772897679.2120278,0.9080810546875,0.2027587890625,-0.023681640625,16.41845703125,-3.601073980331421,20.568845748901367,1,henrik
1772897679.336205,0.8526611328125,0.2987060546875,0.01171875,40.771480560302734,-5.249022960662842,43.395992279052734,1,henrik
1772897679.5169868,0.8302001953125,0.226318359375,0.048583984375,69.51904296875,-1.8920897245407104,63.293453216552734,1,henrik
1772897679.574557,0.7850341796875,0.1849365234375,0.0679931640625,32.40966796875,-5.0048828125,70.37353515625,1,henrik
1772897679.574557,0.813720703125,0.385009765625,0.05029296875,-2.50244140625,1.5869139432907104,70.37353515625,1,henrik
1772897679.574557,0.828369140625,0.5601806640625,0.0516357421875,31.799314498901367,7.263183116912842,56.884761810302734,1,henrik
1772897679.5794196,0.78564453125,0.404296875,0.076416015625,54.260250091552734,10.253905296325684,48.278804779052734,1,henrik
1772897679.637855,0.8544921875,0.5220947265625,0.075927734375,12.329100608825684,5.187987804412842,38.4521484375,1,henrik
1772897679.6907358,0.854248046875,0.4732666015625,0.1173095703125,5.615233898162842,-1.7700194120407104,33.935546875,1,henrik
1772897679.6907358,0.8145751953125,0.568115234375,0.108154296875,-10.131834983825684,2.197265625,35.7666015625,1,henrik
1772897679.755922,0.7867431640625,0.53564453125,0.0841064453125,-6.347655773162842,-5.432128429412842,30.639646530151367,1,henrik
1772897679.817362,0.8289794921875,0.6961669921875,0.07177734375,4.21142578125,-5.798339366912842,28.930662155151367,1,henrik
1772897680.1754775,0.7635498046875,0.573974609375,0.0465087890625,8.9111328125,-7.385253429412842,21.606443405151367,1,henrik
1772897680.1754775,0.7908935546875,0.7015380859375,0.0908203125,-8.6669921875,-17.02880859375,14.953612327575684,1,henrik
1772897680.1754775,0.726806640625,0.61767578125,0.0814208984375,9.3994140625,-11.169432640075684,6.835937023162842,1,henrik
1772897680.1789074,0.7939453125,0.72265625,0.1002197265625,-13.305663108825684,-18.24951171875,2.44140625,1,henrik
1772897680.1789074,0.747802734375,0.628662109375,0.1004638671875,9.3994140625,-16.9677734375,-6.713866710662842,1,henrik
1772897680.2353923,0.857421875,0.634765625,0.214599609375,-9.27734375,-14.953612327575684,-12.878417015075684,1,henrik
1772897680.2964027,0.7891845703125,0.61376953125,0.212890625,-2.50244140625,-9.58251953125,-16.9677734375,1,henrik
1772897680.3565485,0.83251953125,0.70458984375,0.16845703125,17.333984375,-8.30078125,-19.8974609375,1,henrik
1772897680.3565485,0.8243408203125,0.553955078125,0.2071533203125,16.845703125,-7.995604991912842,-19.47021484375,1,henrik
1772897680.416721,0.8388671875,0.5601806640625,0.2022705078125,-0.2441406100988388,-10.192870140075684,-14.770506858825684,1,henrik
1772897680.475473,0.814697265625,0.5054931640625,0.26708984375,-19.4091796875,-13.793944358825684,-13.244627952575684,1,henrik
1772897680.475473,0.838134765625,0.6329345703125,0.162109375,-5.310058116912842,-10.131834983825684,-12.329100608825684,1,henrik
1772897680.5353832,0.8072509765625,0.6026611328125,0.2403564453125,2.0751953125,-12.084959983825684,-13.854979515075684,1,henrik
1772897680.5936604,0.821533203125,0.6678466796875,0.1876220703125,14.465331077575684,-6.530761241912842,-20.935056686401367,1,henrik
1772897680.5936604,0.8173828125,0.6278076171875,0.2615966796875,10.620116233825684,-7.141112804412842,-26.733396530151367,1,henrik
1772897680.6517916,0.827880859375,0.495361328125,0.2445068359375,6.042479991912842,-3.417968511581421,-31.249998092651367,1,henrik
1772897680.7131426,0.84814453125,0.542724609375,0.2855224609375,2.563476324081421,-5.371093273162842,-35.64453125,1,henrik
1772897680.7131426,0.8519287109375,0.4217529296875,0.259765625,6.042479991912842,-0.3662109076976776,-34.48486328125,1,henrik
1772897680.7705996,0.8707275390625,0.4373779296875,0.280517578125,-6.042479991912842,-2.25830078125,-30.212400436401367,1,henrik
1772897680.8355012,0.8929443359375,0.4669189453125,0.269775390625,-10.742186546325684,-1.220703125,-27.526853561401367,1,henrik
1772897680.8355012,0.905029296875,0.426513671875,0.26611328125,-2.563476324081421,0.6103515625,-23.437498092651367,1,henrik
1772897680.8969078,0.938232421875,0.4757080078125,0.2548828125,-1.0986328125,0.1220703050494194,-19.71435546875,1,henrik
1772897680.9567761,0.9296875,0.4317626953125,0.22998046875,1.5869139432907104,1.4038084745407104,-15.624999046325684,1,henrik
1772897680.957675,0.9169921875,0.39794921875,0.2445068359375,-10.375975608825684,-3.540038824081421,-13.305663108825684,1,henrik
1772897681.1374114,0.89892578125,0.4234619140625,0.2056884765625,-7.141112804412842,-2.13623046875,-12.573241233825684,1,henrik
1772897681.1374114,0.898681640625,0.381591796875,0.2598876953125,-7.019042491912842,-3.662109136581421,-13.305663108825684,1,henrik
1772897681.1374114,0.9056396484375,0.412353515625,0.238525390625,-5.920409679412842,-1.4038084745407104,-11.474608421325684,1,henrik
1772897681.1374114,0.8919677734375,0.34033203125,0.278076171875,1.7700194120407104,-0.30517578125,-9.3994140625,1,henrik
1772897681.1935413,0.875732421875,0.372314453125,0.2630615234375,4.5166015625,0.1220703050494194,-13.977049827575684,1,henrik
1772897681.2544997,0.9053955078125,0.3865966796875,0.2376708984375,5.493163585662842,-5.310058116912842,-15.197752952575684,1,henrik
1772897681.2544997,0.908203125,0.343994140625,0.27783203125,-0.54931640625,-6.103515148162842,-18.00537109375,1,henrik
1772897681.3708982,0.9588623046875,0.3759765625,0.260498046875,2.624511480331421,-9.09423828125,-16.2353515625,1,henrik
1772897681.3708982,1.022705078125,0.3076171875,0.3021240234375,-1.7700194120407104,-7.019042491912842,-4.39453125,1,henrik
1772897681.4310896,1.1361083984375,0.476318359375,0.317138671875,-8.056640625,-2.3193359375,9.94873046875,1,henrik
1772897681.4949148,1.24658203125,0.512451171875,0.3184814453125,-20.874021530151367,4.8828125,33.99658203125,1,henrik
1772897681.4949148,1.26318359375,0.5303955078125,0.339111328125,-10.375975608825684,9.765625,49.316402435302734,1,henrik
1772897681.4949148,1.228515625,0.59228515625,0.3980712890625,-16.845703125,15.380858421325684,65.5517578125,1,henrik
1772897681.5571828,1.2767333984375,0.6788330078125,0.2408447265625,5.310058116912842,29.724119186401367,72.3876953125,1,henrik
1772897681.6124523,1.2947998046875,0.6585693359375,0.271240234375,-10.375975608825684,34.0576171875,78.18603515625,1,henrik
1772897681.6124523,1.2462158203125,0.6851806640625,0.2103271484375,-25.573728561401367,41.076656341552734,68.84765625,1,henrik
1772897681.7376878,1.173828125,0.6322021484375,0.1573486328125,-33.75244140625,36.19384765625,50.598140716552734,1,henrik
1772897681.7376878,1.1278076171875,0.5888671875,0.0777587890625,-28.076169967651367,33.87451171875,25.390623092651367,1,henrik
1772897681.742905,1.091064453125,0.531005859375,0.06640625,-19.53125,14.709471702575684,-4.150390625,1,henrik
1772897681.7950914,1.00830078125,0.2843017578125,0.1624755859375,-51.452632904052734,-0.4272460639476776,-39.4287109375,1,henrik
1772897681.9049752,0.7122802734375,0.3341064453125,0.116943359375,-53.710933685302734,-4.0283203125,-79.2236328125,1,henrik
1772897681.9049752,0.4698486328125,0.0462646484375,0.052490234375,-62.866207122802734,-7.019042491912842,-105.52977752685547,1,henrik
1772897682.1577861,0.3909912109375,0.467529296875,-0.009521484375,-67.07763671875,-23.071287155151367,-114.07469940185547,1,henrik
1772897682.1577861,0.2080078125,0.2926025390625,-0.0888671875,-46.874996185302734,-18.12744140625,-97.22899627685547,1,henrik
1772897682.1577861,0.485595703125,0.232421875,0.0875244140625,-74.03564453125,-28.564451217651367,-97.83934783935547,1,henrik
1772897682.213376,0.2568359375,0.212890625,0.1978759765625,-90.33202362060547,-16.90673828125,-74.21875,1,henrik
1772897682.213376,0.992919921875,0.2625732421875,-0.072998046875,37.65869140625,11.840819358825684,22.827146530151367,1,henrik
1772897682.213376,0.9617919921875,0.3717041015625,-0.0018310546875,9.033203125,-2.38037109375,19.6533203125,1,henrik
1772897682.272147,0.9888916015625,0.3760986328125,0.00048828125,-0.30517578125,-6.408690929412842,5.126952648162842,1,henrik
1772897682.329405,0.9359130859375,0.376708984375,-0.0296630859375,2.685546636581421,-4.5166015625,-0.7934569716453552,1,henrik
1772897682.3376868,0.9412841796875,0.320556640625,0.017578125,-11.535643577575684,-6.469726085662842,-2.25830078125,1,henrik
1772897682.3943117,0.9378662109375,0.3388671875,-0.00439453125,4.45556640625,-3.234863042831421,-6.713866710662842,1,henrik
1772897682.4570558,0.9619140625,0.30517578125,0.033447265625,1.9531248807907104,-3.601073980331421,-9.6435546875,1,henrik
1772897682.4570558,0.9454345703125,0.2672119140625,0.0240478515625,-5.432128429412842,-6.408690929412842,-10.437010765075684,1,henrik
1772897682.516698,0.908447265625,0.28173828125,0.045166015625,-5.920409679412842,-6.408690929412842,-3.112792730331421,1,henrik
1772897682.637688,0.9090576171875,0.2738037109375,0.0443115234375,-2.685546636581421,-5.187987804412842,8.1787109375,1,henrik
1772897682.637688,0.850830078125,0.21923828125,0.041259765625,6.103515148162842,-3.845214605331421,19.95849609375,1,henrik
1772897682.8113892,0.77099609375,0.419189453125,0.018798828125,27.099607467651367,-5.920409679412842,36.865234375,1,henrik
1772897682.8113892,0.7069091796875,0.284912109375,0.024169921875,30.334470748901367,2.44140625,65.12451171875,1,henrik
1772897682.8113892,0.75439453125,0.3643798828125,0.0784912109375,26.123044967651367,14.282225608825684,62.255855560302734,1,henrik
1772897682.8195298,0.785400390625,0.5091552734375,0.003173828125,43.151851654052734,17.9443359375,64.453125,1,henrik
1772897682.9376264,0.6937255859375,0.425048828125,0.1026611328125,25.878904342651367,-8.48388671875,57.617183685302734,1,henrik
1772897682.9376264,0.9307861328125,0.6019287109375,0.09814453125,14.282225608825684,-1.6479490995407104,45.593257904052734,1,henrik
1772897682.9376264,0.78759765625,0.4573974609375,0.1502685546875,36.43798828125,-0.54931640625,26.428220748901367,1,henrik
1772897683.0573492,0.968017578125,0.586181640625,0.1328125,4.57763671875,8.056640625,26.855466842651367,1,henrik
1772897683.0573492,0.84765625,0.5118408203125,0.0909423828125,23.986814498901367,17.578125,17.63916015625,1,henrik
1772897683.0583575,0.986572265625,0.61767578125,0.0948486328125,25.756834030151367,24.475095748901367,16.54052734375,1,henrik
1772897683.1172364,0.794189453125,0.48974609375,0.093994140625,25.207517623901367,20.385740280151367,14.343260765075684,1,henrik
1772897683.1172364,0.9608154296875,0.6614990234375,0.07861328125,3.051757574081421,12.084959983825684,15.075682640075684,1,henrik
1772897683.2372818,0.7646484375,0.565673828125,0.0728759765625,14.953612327575684,9.765625,6.835937023162842,1,henrik
1772897683.2372818,0.8682861328125,0.692626953125,0.024658203125,5.432128429412842,4.82177734375,2.197265625,1,henrik
1772897683.2383273,0.775146484375,0.5614013671875,0.080322265625,8.4228515625,0.4272460639476776,-2.868652105331421,1,henrik
1772897683.3567853,0.801025390625,0.6702880859375,0.03369140625,-0.1831054538488388,-7.263183116912842,-12.023924827575684,1,henrik
1772897683.4048607,0.806884765625,0.5667724609375,0.1031494140625,2.0751953125,-14.465331077575684,-13.305663108825684,1,henrik
1772897683.4748821,0.845703125,0.571044921875,0.1048583984375,6.774901866912842,-18.85986328125,-13.427733421325684,1,henrik
1772897683.4748821,0.88232421875,0.5572509765625,0.1002197265625,3.662109136581421,-23.010251998901367,-11.596678733825684,1,henrik
1772897683.4748821,0.9310302734375,0.610107421875,0.1270751953125,0.9765624403953552,-22.338865280151367,-4.150390625,1,henrik
1772897683.4748821,0.8846435546875,0.54296875,0.170654296875,10.986327171325684,-24.414060592651367,0.30517578125,1,henrik
1772897683.53157,0.849853515625,0.5616455078125,0.1917724609375,5.554198741912842,-25.329587936401367,0.30517578125,1,henrik
1772897683.5957336,0.829833984375,0.6163330078125,0.2005615234375,1.03759765625,-22.155759811401367,-3.234863042831421,1,henrik
1772897683.5957336,0.8079833984375,0.5948486328125,0.239501953125,-1.6479490995407104,-19.4091796875,-7.080077648162842,1,henrik
1772897683.6506565,0.8431396484375,0.60888671875,0.164794921875,8.85009765625,-18.4326171875,-6.958007335662842,1,henrik
1772897683.7136464,0.848876953125,0.5318603515625,0.2882080078125,-13.977049827575684,-16.17431640625,-6.408690929412842,1,henrik
1772897683.7136464,0.8392333984375,0.6636962890625,0.19287109375,5.249022960662842,-9.33837890625,-10.925292015075684,1,henrik
1772897683.7748196,0.853271484375,0.5640869140625,0.2237548828125,10.009765625,-10.375975608825684,-9.27734375,1,henrik
1772897683.8353598,0.8302001953125,0.5438232421875,0.272705078125,-2.929687261581421,-9.033203125,-10.742186546325684,1,henrik
1772897683.837701,0.8466796875,0.6134033203125,0.177490234375,7.019042491912842,-7.019042491912842,-10.131834983825684,1,henrik
1772897683.8922915,0.807861328125,0.5439453125,0.250244140625,6.958007335662842,-9.09423828125,-9.1552734375,1,henrik
1772897683.9557405,0.8297119140625,0.51220703125,0.267578125,-0.9155272841453552,-12.451170921325684,-8.7890625,1,henrik
1772897684.0166605,0.823974609375,0.593017578125,0.236572265625,8.1787109375,-10.498045921325684,-10.192870140075684,1,henrik
1772897684.0175667,0.8048095703125,0.506591796875,0.2781982421875,0.8544921278953552,-6.713866710662842,-14.526366233825684,1,henrik
1772897684.0761166,0.8204345703125,0.6568603515625,0.255126953125,25.756834030151367,-5.859374523162842,-24.719236373901367,1,henrik
1772897684.0761166,0.82958984375,0.4686279296875,0.3209228515625,29.602048873901367,-4.2724609375,-26.611326217651367,1,henrik
1772897684.1932633,0.8411865234375,0.4970703125,0.3275146484375,-15.319823265075684,-7.324218273162842,-23.559568405151367,1,henrik
1772897684.1932633,0.8486328125,0.490234375,0.275390625,6.408690929412842,-0.6713866591453552,-26.367185592651367,1,henrik
1772897684.1990666,0.84375,0.3846435546875,0.320556640625,-2.624511480331421,-2.868652105331421,-23.925779342651367,1,henrik
1772897684.2560182,0.8587646484375,0.5008544921875,0.283447265625,-16.2353515625,-1.3427733182907104,-22.460935592651367,1,henrik
1772897684.2560182,0.8662109375,0.436279296875,0.2650146484375,14.709471702575684,2.746581792831421,-21.667478561401367,1,henrik
1772897684.3153822,0.89990234375,0.4345703125,0.32080078125,5.981444835662842,0.9765624403953552,-23.132322311401367,1,henrik
1772897684.4940267,0.8951416015625,0.41015625,0.294189453125,-1.6479490995407104,-4.33349609375,-15.686034202575684,1,henrik
1772897684.5558336,0.897705078125,0.3624267578125,0.319091796875,6.958007335662842,-1.7700194120407104,-14.892577171325684,1,henrik
1772897684.5558336,0.887451171875,0.3974609375,0.28662109375,0.54931640625,-4.82177734375,-10.742186546325684,1,henrik
1772897684.5558336,0.885009765625,0.339111328125,0.3004150390625,3.784179449081421,-1.4038084745407104,-9.765625,1,henrik
1772897684.5558336,0.9747314453125,0.3931884765625,0.302001953125,7.507323741912842,7.446288585662842,-3.417968511581421,1,henrik
1772897684.6139348,0.9857177734375,0.4564208984375,0.3643798828125,-0.9155272841453552,1.0986328125,5.737304210662842,1,henrik
1772897684.6139348,1.066162109375,0.3656005859375,0.3958740234375,-17.27294921875,2.746581792831421,18.98193359375,1,henrik
1772897684.6726706,1.1895751953125,0.6240234375,0.37109375,-31.799314498901367,7.385253429412842,42.175289154052734,1,henrik
1772897684.7326643,1.25048828125,0.70166015625,0.4283447265625,-37.29248046875,27.038572311401367,68.9697265625,1,henrik
1772897684.7326643,1.362060546875,0.79345703125,0.2801513671875,-36.2548828125,41.687007904052734,84.16747283935547,1,henrik
1772897684.7956216,1.4136962890625,0.8487548828125,0.275390625,-21.911619186401367,48.583980560302734,92.65135955810547,1,henrik
1772897684.8534572,1.25341796875,0.7803955078125,0.16357421875,-14.343260765075684,50.964351654052734,78.06396484375,1,henrik
1772897684.8534572,1.346435546875,0.8189697265625,0.073974609375,-23.437498092651367,50.292964935302734,53.833003997802734,1,henrik
1772897684.9757519,0.99462890625,0.51171875,0.050537109375,-27.465818405151367,34.0576171875,10.559081077575684,1,henrik
1772897684.9757519,1.1280517578125,0.726806640625,0.1099853515625,-41.381832122802734,24.719236373901367,-25.695798873901367,1,henrik
1772897684.9788983,0.712890625,0.3643798828125,0.0205078125,31.127927780151367,20.935056686401367,-76.7822265625,1,henrik
1772897685.0380147,0.7183837890625,0.2879638671875,0.1207275390625,-17.333984375,20.263669967651367,-108.82567596435547,1,henrik
1772897685.215788,0.225341796875,0.3828125,0.008056640625,12.512206077575684,24.291990280151367,-134.6435546875,1,henrik
1772897685.215788,0.3477783203125,-0.004150390625,-0.07568359375,-27.160642623901367,14.160155296325684,-135.68115234375,1,henrik
1772897685.215788,0.17041015625,0.1632080078125,0.2659912109375,-113.46434783935547,-8.4228515625,-135.8642578125,1,henrik
1772897685.215788,-0.022216796875,-0.083740234375,0.41064453125,-112.24364471435547,23.803709030151367,-90.45409393310547,1,henrik
1772897685.3304484,0.7646484375,0.157958984375,-0.0047607421875,55.114742279052734,31.188962936401367,15.869139671325684,1,henrik
1772897685.450098,0.94677734375,0.2132568359375,-0.2159423828125,30.517576217651367,13.305663108825684,34.48486328125,1,henrik
1772897685.450098,0.9483642578125,0.3526611328125,-0.026123046875,-15.869139671325684,-6.774901866912842,40.344234466552734,1,henrik
1772897685.450098,0.965576171875,0.333251953125,-0.1239013671875,38.63525390625,1.9531248807907104,24.963376998901367,1,henrik
1772897685.450098,0.956298828125,0.35693359375,-0.1002197265625,3.356933355331421,-3.845214605331421,16.66259765625,1,henrik
1772897685.5127506,0.9241943359375,0.3316650390625,-0.0841064453125,7.202147960662842,-4.150390625,0.7934569716453552,1,henrik
1772897685.5127506,0.9329833984375,0.3900146484375,-0.06005859375,-6.286620616912842,-5.798339366912842,1.15966796875,1,henrik
1772897685.5763574,0.904541015625,0.33203125,-0.070068359375,-6.835937023162842,-6.713866710662842,-1.03759765625,1,henrik
1772897685.632837,0.951416015625,0.369140625,-0.059326171875,0.3662109076976776,-5.920409679412842,-0.8544921278953552,1,henrik
1772897685.632837,0.9305419921875,0.324462890625,-0.0257568359375,-6.164550304412842,-6.652831554412842,-4.150390625,1,henrik
1772897685.6938071,0.9320068359375,0.34716796875,-0.0831298828125,4.82177734375,-5.187987804412842,-2.3193359375,1,henrik
1772897685.7562416,0.9150390625,0.3624267578125,-0.00732421875,-12.084959983825684,-8.60595703125,1.8920897245407104,1,henrik
1772897685.757776,0.8150634765625,0.326416015625,0.0172119140625,10.192870140075684,-7.202147960662842,12.634276390075684,1,henrik
1772897685.815634,0.7906494140625,0.29736328125,0.004638671875,20.690916061401367,-10.803221702575684,40.710445404052734,1,henrik
1772897685.8745422,0.7498779296875,0.4212646484375,0.0325927734375,17.333984375,-13.610838890075684,62.072750091552734,1,henrik
1772897685.8745422,0.6517333984375,0.3807373046875,-0.0225830078125,22.033689498901367,-1.5869139432907104,67.32177734375,1,henrik
1772897685.9349957,0.6993408203125,0.4549560546875,0.017333984375,44.128414154052734,5.310058116912842,69.64111328125,1,henrik
1772897685.9913943,0.6817626953125,0.49072265625,-0.007568359375,42.236324310302734,2.746581792831421,65.36865234375,1,henrik
1772897685.9913943,0.8121337890625,0.499755859375,0.013427734375,47.912593841552734,2.0751953125,55.419918060302734,1,henrik
1772897686.0538409,0.7589111328125,0.493896484375,0.07568359375,52.917476654052734,-7.019042491912842,49.621578216552734,1,henrik
1772897686.177658,0.8900146484375,0.538330078125,0.0260009765625,12.878417015075684,-6.958007335662842,36.7431640625,1,henrik
1772897686.177658,0.789306640625,0.53173828125,0.0987548828125,20.202634811401367,-16.17431640625,28.076169967651367,1,henrik
1772897686.177658,0.87939453125,0.5679931640625,0.0899658203125,10.131834983825684,-6.958007335662842,19.95849609375,1,henrik
1772897686.237521,0.852783203125,0.574951171875,0.1346435546875,10.742186546325684,-18.37158203125,14.038084983825684,1,henrik
1772897686.237521,0.812255859375,0.4866943359375,0.1568603515625,8.9111328125,-10.742186546325684,15.991209983825684,1,henrik
1772897686.2975018,0.8656005859375,0.6053466796875,0.1202392578125,-3.356933355331421,-13.000487327575684,10.681151390075684,1,henrik
1772897686.352121,0.7884521484375,0.560302734375,0.1387939453125,10.803221702575684,-10.986327171325684,9.09423828125,1,henrik
1772897686.4138646,0.873046875,0.615234375,0.147216796875,1.9531248807907104,-16.66259765625,6.164550304412842,1,henrik
1772897686.4138646,0.7744140625,0.572509765625,0.1558837890625,9.521484375,-26.550291061401367,1.4648436307907104,1,henrik
1772897686.5375378,0.857666015625,0.5775146484375,0.17431640625,0.54931640625,-23.498533248901367,5.493163585662842,1,henrik
1772897686.5380945,0.765380859375,0.6611328125,0.188720703125,-3.662109136581421,-25.817869186401367,-3.051757574081421,1,henrik
1772897686.5944068,0.834716796875,0.6632080078125,0.224609375,16.66259765625,-15.686034202575684,-5.798339366912842,1,henrik
1772897686.5944068,0.83935546875,0.6318359375,0.23681640625,10.559081077575684,-20.202634811401367,-11.779784202575684,1,henrik
1772897686.5944068,0.7982177734375,0.588623046875,0.2386474609375,7.324218273162842,-16.29638671875,-7.141112804412842,1,henrik
1772897686.777149,0.8021240234375,0.5794677734375,0.269775390625,6.408690929412842,-16.11328125,-10.253905296325684,1,henrik
1772897686.777149,0.804443359375,0.6578369140625,0.2830810546875,3.540038824081421,-7.263183116912842,-13.061522483825684,1,henrik
1772897686.777149,0.8194580078125,0.607666015625,0.2698974609375,16.6015625,-5.187987804412842,-15.075682640075684,1,henrik
1772897686.7794867,0.8115234375,0.622802734375,0.291259765625,8.1787109375,-5.615233898162842,-20.446775436401367,1,henrik
1772897686.8354163,0.8604736328125,0.5419921875,0.274169921875,3.845214605331421,-3.112792730331421,-18.5546875,1,henrik
1772897686.8380127,0.7982177734375,0.538818359375,0.2603759765625,5.493163585662842,-8.544921875,-17.4560546875,1,henrik
1772897686.8931057,0.848876953125,0.5050048828125,0.2969970703125,-4.638671875,-6.835937023162842,-14.648436546325684,1,henrik
1772897686.954336,0.822021484375,0.5574951171875,0.2626953125,2.685546636581421,-8.72802734375,-13.732909202575684,1,henrik
1772897686.954336,0.8446044921875,0.469482421875,0.2911376953125,-7.751464366912842,-11.169432640075684,-9.6435546875,1,henrik
1772897687.131821,0.8045654296875,0.5806884765625,0.333740234375,-4.57763671875,-6.652831554412842,-11.840819358825684,1,henrik
1772897687.131821,0.8948974609375,0.5958251953125,0.2930908203125,10.742186546325684,-11.169432640075684,-13.122557640075684,1,henrik
1772897687.1379097,0.842041015625,0.59716796875,0.3658447265625,10.314940452575684,-6.225585460662842,-15.563963890075684,1,henrik
1772897687.1387975,0.8839111328125,0.591552734375,0.32568359375,20.324705123901367,-4.150390625,-18.4326171875,1,henrik
1772897687.19572,0.8428955078125,0.53466796875,0.3392333984375,-0.54931640625,-2.685546636581421,-17.4560546875,1,henrik
1772897687.19572,0.837158203125,0.529541015625,0.3477783203125,-0.6103515625,-1.5258787870407104,-20.202634811401367,1,henrik
1772897687.25579,0.853515625,0.5361328125,0.3067626953125,9.46044921875,0.2441406100988388,-20.812986373901367,1,henrik
1772897687.2577968,0.85205078125,0.510009765625,0.3341064453125,10.925292015075684,0.30517578125,-21.728513717651367,1,henrik
1772897687.3159125,0.8759765625,0.419677734375,0.3212890625,-0.6103515625,1.5258787870407104,-17.27294921875,1,henrik
1772897687.3757873,0.8758544921875,0.44482421875,0.30517578125,-0.0610351525247097,-0.4272460639476776,-15.869139671325684,1,henrik
1772897687.4966245,0.871337890625,0.396484375,0.3179931640625,-5.920409679412842,-1.6479490995407104,-8.4228515625,1,henrik
1772897687.4966245,0.868896484375,0.43701171875,0.3131103515625,3.784179449081421,0.1220703050494194,-6.286620616912842,1,henrik
1772897687.4976494,0.86279296875,0.4364013671875,0.310546875,1.0986328125,1.9531248807907104,-3.967284917831421,1,henrik
1772897687.498085,0.8687744140625,0.4603271484375,0.3497314453125,4.0283203125,0.7934569716453552,-5.554198741912842,1,henrik
1772897687.5563226,0.875732421875,0.4197998046875,0.306396484375,-2.624511480331421,0.8544921278953552,-3.234863042831421,1,henrik
1772897687.6125062,0.8804931640625,0.421142578125,0.3682861328125,0.8544921278953552,0.6103515625,-2.38037109375,1,henrik
1772897687.6125062,0.9385986328125,0.47021484375,0.33642578125,-8.11767578125,0.1220703050494194,2.25830078125,1,henrik
1772897687.6766593,1.0230712890625,0.5081787109375,0.4156494140625,-28.381345748901367,2.746581792831421,9.6435546875,1,henrik
1772897687.737915,1.1488037109375,0.676513671875,0.3968505859375,-41.870113372802734,14.221190452575684,28.991697311401367,1,henrik
1772897687.737915,1.3199462890625,0.7457275390625,0.2451171875,-75.1953125,21.606443405151367,57.128902435302734,1,henrik
1772897687.8560646,1.2481689453125,0.8594970703125,0.260986328125,-89.53856658935547,24.841306686401367,70.98388671875,1,henrik
1772897687.8560646,1.19921875,0.8358154296875,0.3052978515625,-49.987789154052734,40.466304779052734,58.532711029052734,1,henrik
1772897687.8560646,1.201416015625,0.8187255859375,0.205810546875,-33.69140625,53.771968841552734,38.9404296875,1,henrik
1772897687.9174883,1.22998046875,0.80126953125,0.0789794921875,-10.070799827575684,52.795406341552734,23.559568405151367,1,henrik
1772897687.9744868,1.2117919921875,0.6529541015625,0.013916015625,-4.82177734375,37.9638671875,-2.563476324081421,1,henrik
1772897687.9744868,1.0694580078125,0.4422607421875,0.05810546875,-23.376462936401367,22.766111373901367,-39.55078125,1,henrik
1772897688.035212,0.8719482421875,0.4215087890625,0.033447265625,-24.047849655151367,11.718749046325684,-75.439453125,1,henrik
1772897688.0941463,0.6632080078125,0.181640625,0.1025390625,-44.433589935302734,4.94384765625,-102.11180877685547,1,henrik
1772897688.0941463,0.379638671875,0.3260498046875,0.078369140625,-48.339839935302734,-2.0751953125,-120.72753143310547,1,henrik
1772897688.1582925,0.2769775390625,0.2991943359375,0.092041015625,-51.330562591552734,-17.39501953125,-106.56737518310547,1,henrik
1772897688.2769034,0.0057373046875,-0.0316162109375,0.10107421875,-58.105464935302734,-3.051757574081421,-106.75048065185547,1,henrik
1772897688.2777293,0.3309326171875,0.0843505859375,0.13623046875,-185.30271911621094,-27.770994186401367,-85.26610565185547,1,henrik
1772897688.2777293,0.4512939453125,0.78369140625,-0.107177734375,9.1552734375,17.333984375,-57.250972747802734,1,henrik
1772897688.5165236,0.8092041015625,0.0692138671875,-0.1298828125,114.80712127685547,35.58349609375,-17.88330078125,1,henrik
1772897688.5165236,0.98193359375,0.3594970703125,-0.0482177734375,-25.817869186401367,-1.5869139432907104,11.291502952575684,1,henrik
1772897688.5748398,0.97509765625,0.3438720703125,-0.1146240234375,5.493163585662842,-3.784179449081421,15.624999046325684,1,henrik
1772897688.5771396,0.9603271484375,0.32373046875,-0.04833984375,7.751464366912842,-4.0283203125,8.9111328125,1,henrik
1772897688.5771396,0.9437255859375,0.3067626953125,-0.092041015625,-2.807616949081421,-0.8544921278953552,7.751464366912842,1,henrik
1772897688.6354551,0.94677734375,0.3055419921875,0.0111083984375,1.7089842557907104,-1.5869139432907104,4.2724609375,1,henrik
1772897688.6354551,0.954833984375,0.2999267578125,-0.064697265625,6.958007335662842,0.2441406100988388,-0.0610351525247097,1,henrik
1772897688.6354551,0.96630859375,0.3076171875,-0.02392578125,2.868652105331421,-1.0986328125,-0.30517578125,1,henrik
1772897688.6932352,0.97021484375,0.2982177734375,-0.0609130859375,0.6713866591453552,-2.0751953125,-1.8920897245407104,1,henrik
1772897688.7568452,0.951416015625,0.2713623046875,-0.023193359375,0.7934569716453552,-0.8544921278953552,2.50244140625,1,henrik
1772897688.7568452,0.9427490234375,0.3043212890625,-0.05517578125,3.295898199081421,-1.220703125,3.479003667831421,1,henrik
1772897688.8162704,0.923828125,0.2890625,-0.029541015625,5.981444835662842,-1.3427733182907104,2.3193359375,1,henrik
1772897688.9357946,0.908203125,0.3309326171875,-0.052734375,7.324218273162842,-3.173827886581421,7.141112804412842,1,henrik
1772897688.9965832,0.8668212890625,0.29931640625,-0.0015869140625,19.59228515625,-2.197265625,18.24951171875,1,henrik
1772897689.1169746,0.834228515625,0.314453125,-0.0257568359375,12.084959983825684,-3.967284917831421,38.9404296875,1,henrik
1772897689.1761436,0.8463134765625,0.36572265625,-0.027587890625,11.962889671325684,-6.958007335662842,52.062984466552734,1,henrik
1772897689.1761436,0.7298583984375,0.341796875,-0.005859375,-7.690429210662842,-7.690429210662842,62.316890716552734,1,henrik
1772897689.1761436,0.7747802734375,0.4552001953125,0.01904296875,8.85009765625,-10.437010765075684,63.842769622802734,1,henrik
1772897689.1761436,0.8201904296875,0.514892578125,0.0146484375,36.68212890625,-1.220703125,50.781246185302734,1,henrik
1772897689.2379048,0.8812255859375,0.4996337890625,0.0064697265625,31.555173873901367,-14.648436546325684,42.724605560302734,1,henrik
1772897689.2949488,0.8013916015625,0.56103515625,0.056640625,6.652831554412842,-19.95849609375,47.485347747802734,1,henrik
1772897689.4166877,0.7509765625,0.565673828125,0.07763671875,23.925779342651367,-27.954099655151367,35.82763671875,1,henrik
1772897689.4166877,0.75244140625,0.555419921875,0.134033203125,21.667478561401367,-22.094724655151367,32.89794921875,1,henrik
1772897689.4166877,0.78515625,0.64794921875,0.10498046875,25.939939498901367,-24.230955123901367,24.291990280151367,1,henrik
1772897689.420511,0.7066650390625,0.552001953125,0.1781005859375,24.414060592651367,-20.629880905151367,22.705076217651367,1,henrik
1772897689.4763143,0.761474609375,0.649169921875,0.161376953125,22.277830123901367,-16.05224609375,18.310546875,1,henrik
1772897689.478374,0.66943359375,0.568603515625,0.23779296875,26.123044967651367,-10.498045921325684,15.502928733825684,1,henrik
1772897689.5381088,0.8292236328125,0.6328125,0.2276611328125,29.479978561401367,-1.5869139432907104,17.822265625,1,henrik
1772897689.6499503,0.6566162109375,0.5604248046875,0.2735595703125,32.5927734375,-2.13623046875,12.145995140075684,1,henrik
1772897689.6499503,0.8553466796875,0.6741943359375,0.248046875,32.470703125,11.474608421325684,18.4326171875,1,henrik
1772897689.6499503,0.697998046875,0.572509765625,0.264892578125,31.249998092651367,5.798339366912842,10.559081077575684,1,henrik
1772897689.7169797,0.784912109375,0.6944580078125,0.285400390625,6.042479991912842,6.164550304412842,10.681151390075684,1,henrik
1772897689.835081,0.69140625,0.7022705078125,0.2161865234375,27.404783248901367,2.746581792831421,-1.5869139432907104,1,henrik
1772897689.837733,0.7701416015625,0.6202392578125,0.286865234375,-7.934569835662842,-2.746581792831421,-6.347655773162842,1,henrik
1772897689.838213,0.7076416015625,0.7366943359375,0.260986328125,-6.713866710662842,-12.145995140075684,-16.17431640625,1,henrik
1772897689.8935835,0.7786865234375,0.7335205078125,0.314208984375,3.967284917831421,-19.775390625,-22.155759811401367,1,henrik
1772897689.8935835,0.80419921875,0.668701171875,0.277099609375,15.136717796325684,-23.925779342651367,-25.085447311401367,1,henrik
1772897689.9566631,0.7952880859375,0.57177734375,0.356201171875,-7.019042491912842,-23.254392623901367,-26.611326217651367,1,henrik
1772897689.9566631,0.7943115234375,0.6180419921875,0.2928466796875,2.01416015625,-16.357421875,-25.878904342651367,1,henrik
1772897690.0122309,0.794921875,0.582763671875,0.290771484375,-6.469726085662842,-11.230467796325684,-24.353025436401367,1,henrik
1772897690.0771668,0.813232421875,0.6141357421875,0.323974609375,1.5258787870407104,-6.225585460662842,-23.986814498901367,1,henrik
1772897690.0771668,0.84228515625,0.5728759765625,0.2579345703125,2.624511480331421,-2.746581792831421,-22.705076217651367,1,henrik
1772897690.1357589,0.7947998046875,0.568115234375,0.3529052734375,6.408690929412842,-6.225585460662842,-22.277830123901367,1,henrik
1772897690.1972744,0.8150634765625,0.5889892578125,0.2259521484375,0.6103515625,-2.563476324081421,-21.362302780151367,1,henrik
1772897690.2564688,0.8077392578125,0.5445556640625,0.3980712890625,-19.83642578125,-10.986327171325684,-18.73779296875,1,henrik
1772897690.2564688,0.8658447265625,0.5809326171875,0.3388671875,-22.338865280151367,-9.521484375,-19.53125,1,henrik
1772897690.3168023,0.8245849609375,0.662353515625,0.353759765625,16.66259765625,-2.929687261581421,-24.291990280151367,1,henrik
1772897690.3168023,0.83056640625,0.53466796875,0.3641357421875,12.695311546325684,0.4272460639476776,-24.230955123901367,1,henrik
1772897690.3778217,0.8380126953125,0.5052490234375,0.3348388671875,5.187987804412842,1.4648436307907104,-24.902341842651367,1,henrik
1772897690.4357746,0.8262939453125,0.519287109375,0.335205078125,7.995604991912842,1.03759765625,-23.986814498901367,1,henrik
1772897690.4957047,0.832763671875,0.403564453125,0.3358154296875,4.5166015625,-0.4882812201976776,-21.972654342651367,1,henrik
1772897690.4957047,0.84521484375,0.435791015625,0.384521484375,-15.808104515075684,-4.45556640625,-20.385740280151367,1,henrik
1772897690.4977043,0.8544921875,0.490234375,0.379150390625,-9.82666015625,-4.08935546875,-19.22607421875,1,henrik
1772897690.556707,0.8748779296875,0.4273681640625,0.370361328125,0.1831054538488388,-3.723144292831421,-17.27294921875,1,henrik
1772897690.6052427,0.8897705078125,0.4656982421875,0.3502197265625,-6.469726085662842,-5.249022960662842,-13.854979515075684,1,henrik
1772897690.6052427,0.8857421875,0.468994140625,0.3665771484375,-2.563476324081421,-5.981444835662842,-10.498045921325684,1,henrik
1772897690.6751761,0.882568359375,0.4154052734375,0.3072509765625,-4.39453125,-4.638671875,-6.958007335662842,1,henrik
1772897690.7348876,0.8609619140625,0.399658203125,0.3394775390625,0.54931640625,-2.38037109375,-2.38037109375,1,henrik
1772897690.7348876,0.8609619140625,0.440185546875,0.3031005859375,-1.4648436307907104,-3.479003667831421,0.9155272841453552,1,henrik
1772897690.7960703,0.8736572265625,0.446044921875,0.301025390625,-0.7324218153953552,-1.6479490995407104,7.995604991912842,1,henrik
1772897690.9157135,0.8741455078125,0.498779296875,0.3494873046875,9.8876953125,2.746581792831421,6.408690929412842,1,henrik
1772897690.9157135,0.9337158203125,0.4959716796875,0.34765625,3.601073980331421,3.540038824081421,12.145995140075684,1,henrik
1772897690.9157135,1.0018310546875,0.52197265625,0.417236328125,-8.30078125,6.774901866912842,20.263669967651367,1,henrik
1772897690.977681,1.2257080078125,0.642333984375,0.49658203125,-20.629880905151367,12.512206077575684,32.89794921875,1,henrik
1772897690.977681,1.1988525390625,0.751220703125,0.5169677734375,-28.015134811401367,16.41845703125,42.053218841552734,1,henrik
1772897691.0358613,1.2540283203125,0.8809814453125,0.559326171875,-40.954586029052734,10.803221702575684,63.659664154052734,1,henrik
1772897691.0964923,1.2742919921875,0.7764892578125,0.4158935546875,-28.015134811401367,23.620603561401367,68.4814453125,1,henrik
1772897691.1530752,1.1971435546875,0.810302734375,0.3551025390625,-57.373043060302734,32.40966796875,61.462398529052734,1,henrik
1772897691.1530752,1.1837158203125,0.6552734375,0.1478271484375,-28.869626998901367,43.090816497802734,50.598140716552734,1,henrik
1772897691.2162006,1.0859375,0.6646728515625,0.112548828125,-50.109859466552734,40.893550872802734,26.733396530151367,1,henrik
1772897691.2162006,0.8934326171875,0.5452880859375,0.0936279296875,-43.273921966552734,37.17041015625,-15.502928733825684,1,henrik
1772897691.2743802,0.78076171875,0.49951171875,0.154541015625,-43.395992279052734,29.296873092651367,-60.791011810302734,1,henrik
1772897691.3316793,0.649658203125,0.3577880859375,0.042236328125,-18.5546875,35.33935546875,-88.62303924560547,1,henrik
1772897691.3316793,0.5360107421875,0.587890625,-0.0068359375,-23.681638717651367,30.700681686401367,-111.63329315185547,1,henrik
1772897691.4541502,0.4146728515625,0.3731689453125,0.0069580078125,-11.718749046325684,24.047849655151367,-96.25243377685547,1,henrik
1772897691.4541502,0.2359619140625,-0.1143798828125,0.1322021484375,-91.49169158935547,15.991209983825684,-116.94335174560547,1,henrik
1772897691.5722804,0.2271728515625,0.341796875,0.1143798828125,-88.56200408935547,-8.11767578125,-92.40721893310547,1,henrik
1772897691.5722804,0.4305419921875,0.0704345703125,-0.0018310546875,-17.4560546875,9.82666015625,-62.744136810302734,1,henrik
1772897691.6941068,0.6826171875,0.5999755859375,-0.1729736328125,21.423337936401367,13.122557640075684,-17.63916015625,1,henrik
1772897691.7555454,0.8076171875,0.1671142578125,-0.0479736328125,15.686034202575684,10.009765625,8.4228515625,1,henrik
1772897691.7555454,0.8651123046875,0.6058349609375,-0.0433349609375,11.779784202575684,-0.2441406100988388,9.94873046875,1,henrik
1772897691.817097,0.947998046875,0.3985595703125,-0.0859375,24.047849655151367,0.2441406100988388,5.432128429412842,1,henrik
